t,gx,gy,gz,ax,ay,az
1713723961483156883,0.006391586735844612,-0.001065264455974102,-0.01065264455974102,-0.08858545869588852,-0.35913026332855225,9.77791976928711
1713723961493156883,0.006391586735844612,0.0,-0.01065264455974102,-0.0933738648891449,-0.35673603415489197,9.77791976928711
1713723961502156883,0.006391586735844612,0.0,-0.01065264455974102,-0.08738835901021957,-0.35913026332855225,9.780313491821289
1713723961512156883,0.006391586735844612,0.0,-0.01065264455974102,-0.08858545869588852,-0.3663128614425659,9.780313491821289
1713723961522156883,0.006391586735844612,0.0,-0.011717909015715122,-0.08259996026754379,-0.35913026332855225,9.77791976928711
1713723961532156883,0.006391586735844612,0.0,-0.01065264455974102,-0.07900865375995636,-0.34835633635520935,9.783905029296875
1713723961541156883,0.006391586735844612,0.0,-0.01065264455974102,-0.08858545869588852,-0.3471592366695404,9.77791976928711
1713723961551156883,0.006391586735844612,0.0,-0.01065264455974102,-0.08978256583213806,-0.3543418347835541,9.780313491821289
1713723961561156883,0.00532632227987051,0.0,-0.01065264455974102,-0.08858545869588852,-0.3603273630142212,9.787496566772461
1713723961571156883,0.006391586735844612,0.0,-0.01065264455974102,-0.08499415963888168,-0.35673603415489197,9.786299705505371
1713723961580156883,0.006391586735844612,0.0,-0.01065264455974102,-0.0802057534456253,-0.355538934469223,9.781511306762695
1713723961590156883,0.00532632227987051,0.0,-0.01065264455974102,-0.0802057534456253,-0.3603273630142212,9.77791976928711
1713723961600156883,0.006391586735844612,0.0,-0.01065264455974102,-0.08379705995321274,-0.355538934469223,9.780313491821289
1713723961609156883,0.006391586735844612,0.0,-0.01065264455974102,-0.08738835901021957,-0.34596213698387146,9.781511306762695
1713723961619156883,0.00532632227987051,0.001065264455974102,-0.009587380103766918,-0.08738835901021957,-0.3495534360408783,9.787496566772461
1713723961629156883,0.006391586735844612,0.0,-0.01065264455974102,-0.08619125932455063,-0.35673603415489197,9.780313491821289
1713723961639156883,0.006391586735844612,0.0,-0.01065264455974102,-0.08140285313129425,-0.35673603415489197,9.77791976928711
1713723961648156883,0.00532632227987051,0.0,-0.01065264455974102,-0.07900865375995636,-0.3579331338405609,9.7791166305542
1713723961658156883,0.006391586735844612,0.0,-0.01065264455974102,-0.08259996026754379,-0.355538934469223,9.77791976928711
1713723961668156883,0.006391586735844612,-0.001065264455974102,-0.009587380103766918,-0.08259996026754379,-0.35673603415489197,9.782708168029785
1713723961677156883,0.006391586735844612,0.0,-0.01065264455974102,-0.08619125932455063,-0.363918662071228,9.792284965515137
1713723961687156883,0.006391586735844612,0.0,-0.009587380103766918,-0.0933738648891449,-0.3579331338405609,9.786299705505371
1713723961697156883,0.007456851191818714,-0.001065264455974102,-0.01065264455974102,-0.0933738648891449,-0.35314473509788513,9.77672290802002
1713723961706156883,0.006391586735844612,0.0,-0.009587380103766918,-0.0933738648891449,-0.35075053572654724,9.785101890563965
1713723961716156883,0.006391586735844612,0.0,-0.01065264455974102,-0.08259996026754379,-0.35314473509788513,9.781511306762695
1713723961726156883,0.006391586735844612,0.0,-0.01065264455974102,-0.07661445438861847,-0.363918662071228,9.768342971801758
1713723961736156883,0.006391586735844612,-0.001065264455974102,-0.009587380103766918,-0.07900865375995636,-0.363918662071228,9.769539833068848
1713723961745156883,0.006391586735844612,0.0,-0.01065264455974102,-0.08140285313129425,-0.3663128614425659,9.77672290802002
1713723961755156883,0.006391586735844612,0.0,-0.01065264455974102,-0.090979665517807,-0.36750996112823486,9.775525093078613
1713723961765156883,0.006391586735844612,0.0,-0.01065264455974102,-0.0933738648891449,-0.35913026332855225,9.770736694335938
1713723961774156883,0.006391586735844612,-0.001065264455974102,-0.01065264455974102,-0.0933738648891449,-0.3627215623855591,9.773131370544434
1713723961784156883,0.006391586735844612,0.0,-0.01065264455974102,-0.090979665517807,-0.3627215623855591,9.785101890563965
1713723961794156883,0.006391586735844612,0.0,-0.01065264455974102,-0.08738835901021957,-0.355538934469223,9.783905029296875
1713723961803156883,0.006391586735844612,0.001065264455974102,-0.01065264455974102,-0.08619125932455063,-0.35075053572654724,9.773131370544434
1713723961813156883,0.006391586735844612,0.001065264455974102,-0.009587380103766918,-0.08140285313129425,-0.3495534360408783,9.775525093078613
1713723961823156883,0.006391586735844612,0.0,-0.009587380103766918,-0.08379705995321274,-0.35673603415489197,9.775525093078613
1713723961833156883,0.006391586735844612,0.0,-0.01065264455974102,-0.090979665517807,-0.3543418347835541,9.775525093078613
1713723961843156883,0.006391586735844612,0.0,-0.01065264455974102,-0.09457096457481384,-0.3543418347835541,9.77672290802002
1713723961852156883,0.006391586735844612,0.0,-0.01065264455974102,-0.09935937076807022,-0.35673603415489197,9.774328231811523
1713723961862156883,0.006391586735844612,0.0,-0.01065264455974102,-0.09217676520347595,-0.35673603415489197,9.769539833068848
1713723961872156883,0.006391586735844612,0.0,-0.009587380103766918,-0.08259996026754379,-0.363918662071228,9.773131370544434
1713723961881156883,0.006391586735844612,0.0,-0.009587380103766918,-0.08499415963888168,-0.363918662071228,9.785101890563965
1713723961891156883,0.006391586735844612,-0.001065264455974102,-0.01065264455974102,-0.08379705995321274,-0.35673603415489197,9.785101890563965
1713723961900156883,0.006391586735844612,0.0,-0.01065264455974102,-0.08499415963888168,-0.35314473509788513,9.783905029296875
1713723961911156883,0.00532632227987051,0.0,-0.01065264455974102,-0.08259996026754379,-0.3543418347835541,9.77791976928711
1713723961920156883,0.006391586735844612,0.0,-0.01065264455974102,-0.07900865375995636,-0.35314473509788513,9.770736694335938
1713723961930156883,0.006391586735844612,0.0,-0.01065264455974102,-0.08379705995321274,-0.355538934469223,9.780313491821289
1713723961940156883,0.006391586735844612,0.0,-0.01065264455974102,-0.0933738648891449,-0.36152446269989014,9.785101890563965
1713723961949156883,0.006391586735844612,0.0,-0.01065264455974102,-0.09696516394615173,-0.3627215623855591,9.773131370544434
1713723961959156883,0.006391586735844612,0.0,-0.009587380103766918,-0.090979665517807,-0.365115761756897,9.77672290802002
1713723961969156883,0.007456851191818714,0.0,-0.01065264455974102,-0.08738835901021957,-0.3627215623855591,9.785101890563965
1713723961979156883,0.006391586735844612,0.0,-0.01065264455974102,-0.08738835901021957,-0.355538934469223,9.781511306762695
1713723961988156883,0.006391586735844612,0.0,-0.01065264455974102,-0.08619125932455063,-0.35913026332855225,9.774328231811523
1713723961998156883,0.006391586735844612,0.0,-0.01065264455974102,-0.08858545869588852,-0.3603273630142212,9.774328231811523
1713723962007156883,0.006391586735844612,0.0,-0.009587380103766918,-0.08738835901021957,-0.3603273630142212,9.77672290802002
1713723962017156883,0.006391586735844612,0.0,-0.01065264455974102,-0.08499415963888168,-0.3603273630142212,9.77791976928711
1713723962027156883,0.00532632227987051,0.0,-0.009587380103766918,-0.08619125932455063,-0.3627215623855591,9.780313491821289
1713723962037156883,0.006391586735844612,0.0,-0.01065264455974102,-0.08978256583213806,-0.365115761756897,9.781511306762695
1713723962046156883,0.00532632227987051,0.0,-0.01065264455974102,-0.08619125932455063,-0.365115761756897,9.782708168029785
1713723962056156883,0.006391586735844612,0.0,-0.01065264455974102,-0.08499415963888168,-0.3687070608139038,9.780313491821289
1713723962066156883,0.00532632227987051,0.0,-0.01065264455974102,-0.09457096457481384,-0.3627215623855591,9.782708168029785
1713723962075156883,0.006391586735844612,0.0,-0.01065264455974102,-0.08978256583213806,-0.3579331338405609,9.781511306762695
1713723962085156883,0.007456851191818714,0.0,-0.01065264455974102,-0.08140285313129425,-0.35673603415489197,9.774328231811523
1713723962095156883,0.007456851191818714,0.0,-0.009587380103766918,-0.08140285313129425,-0.363918662071228,9.775525093078613
1713723962104156883,0.006391586735844612,0.0,-0.009587380103766918,-0.08379705995321274,-0.3663128614425659,9.780313491821289
1713723962114156883,0.00532632227987051,0.001065264455974102,-0.009587380103766918,-0.08858545869588852,-0.3579331338405609,9.787496566772461
1713723962124156883,0.006391586735844612,0.0,-0.01065264455974102,-0.08978256583213806,-0.3543418347835541,9.782708168029785
1713723962134156883,0.006391586735844612,0.0,-0.01065264455974102,-0.08379705995321274,-0.35673603415489197,9.775525093078613
1713723962144156883,0.006391586735844612,-0.001065264455974102,-0.01065264455974102,-0.0802057534456253,-0.355538934469223,9.781511306762695
1713723962153156883,0.006391586735844612,-0.001065264455974102,-0.01065264455974102,-0.08619125932455063,-0.35673603415489197,9.7791166305542
1713723962163156883,0.006391586735844612,0.0,-0.01065264455974102,-0.09217676520347595,-0.355538934469223,9.774328231811523
1713723962172156883,0.006391586735844612,-0.001065264455974102,-0.01065264455974102,-0.08978256583213806,-0.3495534360408783,9.775525093078613
1713723962182156883,0.006391586735844612,0.0,-0.01065264455974102,-0.08259996026754379,-0.35075053572654724,9.7791166305542
1713723962192156883,0.006391586735844612,0.0,-0.01065264455974102,-0.08140285313129425,-0.3543418347835541,9.774328231811523
1713723962202156883,0.006391586735844612,0.0,-0.009587380103766918,-0.090979665517807,-0.3603273630142212,9.773131370544434
1713723962211156883,0.006391586735844612,0.0,-0.01065264455974102,-0.09217676520347595,-0.35913026332855225,9.781511306762695
1713723962221156883,0.00532632227987051,0.0,-0.01065264455974102,-0.08738835901021957,-0.35673603415489197,9.787496566772461
1713723962231156883,0.00532632227987051,0.0,-0.01065264455974102,-0.08738835901021957,-0.36152446269989014,9.786299705505371
1713723962241156883,0.00532632227987051,0.0,-0.01065264455974102,-0.08738835901021957,-0.3579331338405609,9.7791166305542
1713723962250156883,0.00532632227987051,0.0,-0.009587380103766918,-0.090979665517807,-0.3519476354122162,9.77791976928711
1713723962260156883,0.00532632227987051,0.0,-0.01065264455974102,-0.08738835901021957,-0.355538934469223,9.783905029296875
1713723962270156883,0.006391586735844612,0.001065264455974102,-0.01065264455974102,-0.08619125932455063,-0.355538934469223,9.7791166305542
1713723962279156883,0.006391586735844612,0.0,-0.01065264455974102,-0.0933738648891449,-0.355538934469223,9.782708168029785
1713723962289156883,0.00532632227987051,0.0,-0.01065264455974102,-0.09816227108240128,-0.35673603415489197,9.78989028930664
1713723962299156883,0.006391586735844612,-0.001065264455974102,-0.01065264455974102,-0.09576806426048279,-0.3543418347835541,9.782708168029785
1713723962309156883,0.006391586735844612,-0.001065264455974102,-0.01065264455974102,-0.08738835901021957,-0.3579331338405609,9.77791976928711
1713723962318156883,0.006391586735844612,0.0,-0.009587380103766918,-0.08978256583213806,-0.3579331338405609,9.77672290802002
1713723962328156883,0.006391586735844612,0.0,-0.009587380103766918,-0.08858545869588852,-0.35314473509788513,9.774328231811523
1713723962338156883,0.006391586735844612,0.0,-0.01065264455974102,-0.09816227108240128,-0.3411737382411957,9.781511306762695
1713723962347156883,0.008522115647792816,-0.001065264455974102,-0.01065264455974102,-0.016759412363171577,-0.03232172131538391,10.236409187316895
1713723962357156883,0.02556634694337845,-0.004261057823896408,-0.014913702383637428,-0.06464344263076782,0.46567222476005554,10.247182846069336
1713723962367156883,0.05006742849946022,0.00532632227987051,-0.01065264455974102,-0.040701426565647125,1.070208191871643,10.073603630065918
1713723962377156883,0.08096009492874146,0.011717909015715122,-0.013848437927663326,0.09696516394615173,1.6627730131149292,10.279504776000977
1713723962386156883,0.12676647305488586,0.01065264455974102,-0.01810949482023716,-0.010773907415568829,2.033874273300171,9.060855865478516
1713723962396156883,0.1065264418721199,0.003195793367922306,-0.020240023732185364,0.08499415963888168,1.944091796875,8.71728801727295
1713723962406156883,0.05006742849946022,-0.01065264455974102,-0.027696875855326653,0.28371289372444153,1.6927006244659424,10.838550567626953
1713723962415156883,0.052197955548763275,-0.020240023732185364,-0.03621898964047432,0.2777273952960968,1.9261351823806763,9.941922187805176
1713723962425156883,-0.022370552644133568,-0.014913702383637428,-0.044741105288267136,0.2322375625371933,2.030282974243164,8.38569164276123
1713723962435156883,-0.08202536404132843,-0.001065264455974102,-0.049002163112163544,0.06703764945268631,1.7070658206939697,10.18613052368164
1713723962444156883,-0.05645901337265968,0.015978965908288956,-0.04261057823896408,-0.13527239859104156,1.7501614093780518,9.987412452697754
1713723962454156883,-0.044741105288267136,0.02556634694337845,-0.037284255027770996,-0.02513911761343479,1.9189525842666626,8.708908081054688
1713723962464156883,-0.04580637067556381,0.015978965908288956,-0.041545312851667404,-0.04189852997660637,1.7609353065490723,9.586383819580078
1713723962474156883,-0.003195793367922306,-0.002130528911948204,-0.041545312851667404,-0.18315643072128296,1.6316484212875366,10.06043529510498
1713723962483156883,0.003195793367922306,-0.019174760207533836,-0.041545312851667404,-0.10295066982507706,1.600523829460144,10.034099578857422
1713723962493156883,0.023435818031430244,-0.03195793181657791,-0.047936901450157166,0.05746084079146385,1.578976035118103,9.99339771270752
1713723962503156883,-0.004261057823896408,-0.03302319720387459,-0.05645901337265968,0.12210428714752197,1.40180504322052,10.487800598144531
1713723962512156883,-0.00532632227987051,-0.014913702383637428,-0.058589544147253036,-0.005985504016280174,1.0881646871566772,10.866084098815918
1713723962522156883,-0.02130528911948204,0.008522115647792816,-0.055393751710653305,-0.10893617570400238,0.7553706169128418,10.253169059753418
1713723962532156883,-0.006391586735844612,0.02130528911948204,-0.05006742849946022,-0.12330138683319092,0.5183446407318115,9.931148529052734
1713723962541156883,0.03195793181657791,0.012783173471689224,-0.044741105288267136,-0.2238578498363495,0.5434837937355042,8.810662269592285
1713723962551156883,0.049002163112163544,0.001065264455974102,-0.03621898964047432,-0.13527239859104156,0.5877764821052551,8.555679321289062
1713723962561156883,0.05645901337265968,-0.01065264455974102,-0.037284255027770996,0.017956512048840523,0.4225766062736511,9.403226852416992
1713723962571156883,0.015978965908288956,-0.009587380103766918,-0.037284255027770996,-0.06584054231643677,0.038307227194309235,9.882067680358887
1713723962580156883,-0.055393751710653305,-0.002130528911948204,-0.03941478580236435,-0.023942016065120697,-0.41778817772865295,10.488997459411621
1713723962590156883,-0.08735168725252151,0.001065264455974102,-0.04367584362626076,0.05506663769483566,-0.5949591398239136,10.763134002685547
1713723962600156883,-0.019174760207533836,-0.02130528911948204,-0.047936901450157166,-0.10893617570400238,-0.35913026332855225,9.783905029296875
1713723962610156883,-0.001065264455974102,-0.030892668291926384,-0.04367584362626076,-0.2214636504650116,-0.028730420395731926,9.227252960205078
1713723962619156883,0.11291802674531937,-0.01810949482023716,-0.04367584362626076,-0.181959331035614,0.3196259140968323,8.698134422302246
1713723962629156883,0.09906959533691406,0.03195793181657791,-0.03621898964047432,-0.12689268589019775,0.4489127993583679,8.542511940002441
1713723962639156883,0.05645901337265968,0.05752427875995636,-0.03515372797846794,-0.08619125932455063,0.1412578970193863,9.446322441101074
1713723962648156883,-0.05006742849946022,0.05432848632335663,-0.03621898964047432,-0.11971008032560349,-0.6416460275650024,10.631452560424805
1713723962658156883,-0.14594122767448425,0.004261057823896408,-0.03941478580236435,-0.15682020783424377,-1.844732403755188,13.086706161499023
1713723962668156883,-0.07137271761894226,-0.10865697264671326,-0.04580637067556381,-0.32202011346817017,-1.6280571222305298,11.832144737243652
1713723962677156883,-0.024501081556081772,-0.13741911947727203,-0.03515372797846794,-0.4010287821292877,-0.6021417379379272,10.018536567687988
1713723962687156883,0.1906823366880417,-0.0649811327457428,-0.02876213937997818,-0.07900865375995636,0.20949263870716095,8.80587387084961
1713723962697156883,0.2695119082927704,0.06711165606975555,-0.009587380103766918,-0.10175357013940811,0.910993754863739,7.048529624938965
1713723962706156883,0.23009711503982544,0.13528858125209808,0.0,-0.34596213698387146,0.8236053586006165,8.136693954467773
1713723962716156883,0.12250541150569916,0.14913702011108398,-0.002130528911948204,-0.1149216815829277,0.28730419278144836,9.161412239074707
1713723962726156883,-0.06604639440774918,0.08735168725252151,-0.017044231295585632,-0.017956512048840523,-0.36152446269989014,9.821015357971191
1713723962736156883,-0.2322276532649994,0.009587380103766918,-0.020240023732185364,-0.05267243832349777,-0.6344634294509888,10.230423927307129
1713723962745156883,-0.26631611585617065,-0.08415588736534119,-0.027696875855326653,-0.1975216418504715,-0.4991910457611084,10.26394271850586
1713723962755156883,-0.1768338978290558,-0.1576591432094574,-0.02130528911948204,-0.5147533416748047,-0.02513911761343479,9.11233139038086
1713723962765156883,-0.05326322093605995,-0.13528858125209808,-0.011717909015715122,-0.27653029561042786,0.3016694188117981,9.074024200439453
1713723962774156883,0.10972223430871964,-0.03621898964047432,-0.013848437927663326,0.07781155407428741,0.23702596127986908,9.570820808410645
1713723962784156883,0.09800432622432709,0.07243797928094864,-0.007456851191818714,0.0586579404771328,-0.29448679089546204,10.134655952453613
1713723962794156883,0.01065264455974102,0.12357067316770554,-0.009587380103766918,0.16160860657691956,-1.3180080652236938,11.84650993347168
1713723962804156883,-0.007456851191818714,0.07030745595693588,-0.02556634694337845,0.24420857429504395,-1.5095441341400146,12.016498565673828
1713723962814156883,-0.001065264455974102,-0.04048004746437073,-0.03195793181657791,0.14484919607639313,-0.7266402244567871,9.90241813659668
1713723962823156883,0.05326322093605995,-0.08096009492874146,-0.02876213937997818,-0.05985504016280174,0.061052143573760986,8.793902397155762
1713723962833156883,0.16298545897006989,-0.044741105288267136,-0.023435818031430244,-0.1628057062625885,0.5805938839912415,8.412027359008789
1713723962842156883,0.13528858125209808,0.024501081556081772,-0.01065264455974102,-0.11372458189725876,0.5518634915351868,7.835024833679199
1713723962852156883,0.03195793181657791,0.06924218684434891,-0.006391586735844612,-0.07541735470294952,-0.017956512048840523,9.211690902709961
1713723962862156883,-0.0884169489145279,0.0788295716047287,-0.011717909015715122,-0.12090718746185303,-0.4836287498474121,10.177751541137695
1713723962872156883,-0.18748654425144196,0.04261057823896408,-0.017044231295585632,-0.06703764945268631,-0.5494692921638489,10.736797332763672
1713723962882156883,-0.11930961906909943,-0.0511326938867569,-0.023435818031430244,-0.2849099934101105,-0.1364694982767105,9.5995512008667
1713723962891156883,-0.11930961906909943,-0.10546118021011353,-0.01810949482023716,-0.5219359397888184,0.11611878126859665,8.938752174377441
1713723962901156883,0.014913702383637428,-0.08948221057653427,-0.01810949482023716,-0.3196259140968323,-0.10295066982507706,9.682151794433594
1713723962911156883,-0.022370552644133568,-0.002130528911948204,-0.006391586735844612,0.04189852997660637,-0.8990226984024048,11.107898712158203
1713723962920156883,-0.04580637067556381,0.06072007119655609,-0.008522115647792816,0.3734954595565796,-1.7310078144073486,12.668917655944824
1713723962930156883,0.05326322093605995,0.04048004746437073,-0.014913702383637428,0.2322375625371933,-1.2557587623596191,10.923544883728027
1713723962940156883,0.0649811327457428,0.006391586735844612,-0.009587380103766918,-0.06344634294509888,-0.3711012601852417,9.163806915283203
1713723962949156883,0.22796659171581268,-0.009587380103766918,-0.013848437927663326,-0.27892449498176575,0.2801215946674347,8.32104778289795
1713723962959156883,0.20133498311042786,0.03302319720387459,-0.004261057823896408,-0.19033902883529663,0.5518634915351868,8.525752067565918
1713723962969156883,0.148071750998497,0.05006742849946022,-0.00532632227987051,-0.07182604819536209,0.272938996553421,8.544905662536621
1713723962978156883,-0.020240023732185364,0.04261057823896408,-0.012783173471689224,-0.07302314788103104,-0.1999158412218094,8.766369819641113
1713723962988156883,-0.1768338978290558,0.00532632227987051,-0.024501081556081772,0.013168109580874443,-0.49559974670410156,10.047266960144043
1713723962998156883,-0.26738137006759644,-0.03302319720387459,-0.02556634694337845,-0.03950432687997818,-0.40462008118629456,10.287884712219238
1713723963008156883,-0.16831177473068237,-0.08628641813993454,-0.026631610468029976,-0.24779987335205078,0.03232172131538391,9.26915168762207
1713723963017156883,-0.10972223430871964,-0.08735168725252151,-0.019174760207533836,-0.4381389021873474,0.2717418968677521,8.69454288482666
1713723963027156883,0.03195793181657791,-0.04048004746437073,-0.013848437927663326,-0.14724339544773102,-0.2753331959247589,10.32978343963623
1713723963037156883,0.022370552644133568,0.04687163606286049,-0.007456851191818714,0.272938996553421,-1.3958195447921753,12.339715003967285
1713723963046156883,0.03515372797846794,0.07137271761894226,-0.015978965908288956,0.2190694510936737,-2.0470423698425293,13.168108940124512
1713723963056156883,0.09906959533691406,0.015978965908288956,-0.01810949482023716,0.05147533491253853,-1.2689268589019775,10.922348022460938
1713723963066156883,0.1342233121395111,-0.020240023732185364,-0.013848437927663326,0.010773907415568829,-0.3232172131538391,9.045293807983398
1713723963076156883,0.2790992856025696,-0.011717909015715122,-0.015978965908288956,-0.34596213698387146,0.5303156971931458,7.771578788757324
1713723963085156883,0.23009711503982544,0.047936901450157166,0.001065264455974102,-0.45010989904403687,0.9804255962371826,7.006631374359131
1713723963095156883,0.10865697264671326,0.07137271761894226,0.0,-0.152031809091568,0.4106055796146393,8.493430137634277
1713723963104156883,-0.06178533658385277,0.047936901450157166,-0.011717909015715122,-0.043095629662275314,-0.30526071786880493,9.625887870788574
1713723963114156883,-0.22796659171581268,-0.002130528911948204,-0.019174760207533836,-0.07182604819536209,-0.4489127993583679,9.876081466674805
1713723963124156883,-0.30360037088394165,-0.05326322093605995,-0.022370552644133568,-0.04429272934794426,-0.23702596127986908,10.328585624694824
1713723963134156883,-0.18429075181484222,-0.10972223430871964,-0.02130528911948204,-0.25258827209472656,0.02274491637945175,9.396044731140137
1713723963144156883,-0.10546118021011353,-0.09161274135112762,-0.012783173471689224,-0.4118026793003082,-0.017956512048840523,9.097966194152832
1713723963153156883,0.02556634694337845,-0.023435818031430244,-0.009587380103766918,-0.05746084079146385,-0.8164227604866028,11.525687217712402
1713723963163156883,0.0511326938867569,0.06285060197114944,-0.003195793367922306,0.45250412821769714,-1.8004395961761475,12.915520668029785
1713723963172156883,0.10865697264671326,0.05965480953454971,-0.01810949482023716,0.27892449498176575,-1.8064250946044922,11.944671630859375
1713723963182156883,0.1203748807311058,0.019174760207533836,-0.014913702383637428,-0.09576806426048279,-0.8104372620582581,9.556455612182617
1713723963192156883,0.21624867618083954,-0.013848437927663326,-0.015978965908288956,-0.06464344263076782,0.17238251864910126,8.497021675109863
1713723963202156883,0.2407497614622116,0.008522115647792816,-0.009587380103766918,-0.1951274424791336,0.6835445761680603,8.277952194213867
1713723963211156883,0.18429075181484222,0.034088462591171265,-0.002130528911948204,-0.19632454216480255,0.6165069341659546,7.55011510848999
1713723963221156883,0.03515372797846794,0.03941478580236435,-0.006391586735844612,-0.0347159244120121,0.21428105235099792,8.063671112060547
1713723963231156883,-0.13741911947727203,0.015978965908288956,-0.01810949482023716,0.043095629662275314,-0.272938996553421,9.59835433959961
1713723963240156883,-0.2684466242790222,-0.006391586735844612,-0.023435818031430244,0.004788403399288654,-0.3998316824436188,10.261548042297363
1713723963250156883,-0.24394555389881134,-0.052197955548763275,-0.024501081556081772,-0.14724339544773102,-0.28730419278144836,10.217255592346191
1713723963260156883,-0.13315805792808533,-0.1022653877735138,-0.02556634694337845,-0.3627215623855591,-0.09935937076807022,9.672574996948242
1713723963270156883,-0.03195793181657791,-0.07989483326673508,-0.020240023732185364,-0.3627215623855591,-0.3148375153541565,10.435128211975098
1713723963280156883,0.09161274135112762,-0.006391586735844612,-0.01810949482023716,0.06823474913835526,-0.9720458984375,11.470620155334473
1713723963289156883,0.04261057823896408,0.07989483326673508,-0.014913702383637428,0.3711012601852417,-1.5490484237670898,11.348515510559082
1713723963299156883,0.08309062570333481,0.07563377171754837,-0.026631610468029976,0.15801730751991272,-1.303642749786377,10.989385604858398
1713723963308156883,0.09906959533691406,0.027696875855326653,-0.02130528911948204,-0.05746084079146385,-0.4225766062736511,9.496601104736328
1713723963318156883,0.18216021358966827,-0.012783173471689224,-0.017044231295585632,-0.28730419278144836,0.2238578498363495,8.548497200012207
1713723963328156883,0.1992044448852539,-0.008522115647792816,-0.01065264455974102,-0.35673603415489197,0.591367781162262,8.365340232849121
1713723963338156883,0.13635385036468506,0.007456851191818714,-0.001065264455974102,-0.07302314788103104,0.5303156971931458,7.824251174926758
1713723963348156883,-0.01065264455974102,0.009587380103766918,-0.008522115647792816,0.009576806798577309,0.09816227108240128,8.777143478393555
1713723963357156883,-0.14913702011108398,0.002130528911948204,-0.02130528911948204,-0.023942016065120697,-0.35913026332855225,9.965864181518555
1713723963367156883,-0.2641855776309967,-0.006391586735844612,-0.023435818031430244,0.0,-0.5003881454467773,10.08437728881836
1713723963377156883,-0.1757686287164688,-0.052197955548763275,-0.024501081556081772,-0.08738835901021957,-0.31364041566848755,9.920374870300293
1713723963386156883,-0.10120011866092682,-0.08096009492874146,-0.02130528911948204,-0.40462008118629456,-0.17956513166427612,9.708487510681152
1713723963396156883,0.017044231295585632,-0.052197955548763275,-0.014913702383637428,-0.4082113802433014,-0.689530074596405,11.530475616455078
1713723963406156883,0.09480853378772736,0.022370552644133568,-0.01065264455974102,0.11372458189725876,-1.2916717529296875,12.138602256774902
1713723963415156883,0.0788295716047287,0.07030745595693588,-0.015978965908288956,0.3076549172401428,-1.3251906633377075,11.086350440979004
1713723963425156883,0.12783172726631165,0.04580637067556381,-0.022370552644133568,0.12449848651885986,-0.6368576288223267,9.48343276977539
1713723963434721935,0.13209278881549835,0.008522115647792816,-0.014913702383637428,-0.1604115068912506,0.12330138683319092,8.62630844116211
1713723963444721935,0.2087918221950531,-0.017044231295585632,-0.017044231295585632,-0.4297592043876648,0.5339069962501526,8.26119327545166
1713723963453721935,0.1342233121395111,-0.012783173471689224,-0.007456851191818714,-0.26336216926574707,0.48961424827575684,7.921216011047363
1713723963463721935,0.00532632227987051,-0.015978965908288956,-0.011717909015715122,0.035913024097681046,-0.23104046285152435,9.533711433410645
1713723963473721935,-0.13741911947727203,-0.020240023732185364,-0.02130528911948204,-0.02274491637945175,-0.7769184112548828,10.497377395629883
1713723963482721935,-0.23009711503982544,-0.022370552644133568,-0.024501081556081772,0.0011971008498221636,-0.7565677165985107,10.927136421203613
1713723963492721935,-0.1065264418721199,-0.06711165606975555,-0.029827404767274857,-0.010773907415568829,-0.17717091739177704,9.533711433410645
1713723963502721935,-0.05326322093605995,-0.07456851005554199,-0.023435818031430244,-0.3495534360408783,0.1843535304069519,8.682572364807129
1713723963512721935,0.12144014239311218,-0.04367584362626076,-0.02130528911948204,-0.208295539021492,-0.08259996026754379,9.642646789550781
1713723963521721935,0.09800432622432709,0.034088462591171265,-0.011717909015715122,0.15442600846290588,-0.8283937573432922,11.385625839233398
1713723963531721935,0.04580637067556381,0.08202536404132843,-0.011717909015715122,0.11372458189725876,-1.358709454536438,11.66814136505127
1713723963541721935,0.03941478580236435,0.0511326938867569,-0.019174760207533836,0.09935937076807022,-0.9253589510917664,10.145429611206055
1713723963550721935,0.04580637067556381,-0.02556634694337845,-0.022370552644133568,-0.047884032130241394,-0.0347159244120121,8.674192428588867
1713723963560721935,0.12357067316770554,-0.07137271761894226,-0.023435818031430244,-0.19033902883529663,0.4967968463897705,8.092401504516602
1713723963570721935,0.13741911947727203,-0.06072007119655609,-0.020240023732185364,-0.061052143573760986,0.34356793761253357,9.148244857788086
1713723963579721935,0.07669904083013535,-0.023435818031430244,-0.015978965908288956,0.020350713282823563,-0.08379705995321274,9.308655738830566
1713723963589721935,-0.06391586363315582,0.020240023732185364,-0.020240023732185364,0.06584054231643677,-0.5003881454467773,9.896432876586914
1713723963599721935,-0.15872439742088318,0.037284255027770996,-0.026631610468029976,0.09935937076807022,-0.42856210470199585,10.093954086303711
1713723963609721935,-0.10013485699892044,-0.004261057823896408,-0.03195793181657791,0.020350713282823563,-0.05506663769483566,9.210494041442871
1713723963618721935,-0.06817692518234253,-0.05752427875995636,-0.029827404767274857,-0.21547815203666687,0.09816227108240128,8.971073150634766
1713723963628721935,0.024501081556081772,-0.07137271761894226,-0.023435818031430244,-0.24420857429504395,-0.1759738177061081,10.108319282531738
1713723963638721935,0.027696875855326653,-0.02556634694337845,-0.015978965908288956,-0.104147769510746,-0.8750807046890259,11.663352966308594
1713723963648721935,-0.013848437927663326,0.03195793181657791,-0.009587380103766918,-0.04189852997660637,-1.3275848627090454,11.809399604797363
1713723963657721935,0.04580637067556381,0.020240023732185364,-0.017044231295585632,0.14604629576206207,-0.9145850539207458,10.256759643554688
1713723963667721935,0.06285060197114944,-0.019174760207533836,-0.015978965908288956,0.05027823522686958,-0.13407529890537262,8.774748802185059
1713723963677721935,0.1906823366880417,-0.04048004746437073,-0.019174760207533836,-0.20470423996448517,0.386663556098938,8.327033042907715
1713723963686721935,0.17363810539245605,-0.017044231295585632,-0.015978965908288956,-0.10175357013940811,0.30885201692581177,8.972270965576172
1713723963696721935,0.09480853378772736,0.008522115647792816,-0.015978965908288956,0.014365210197865963,-0.2214636504650116,9.464279174804688
1713723963706721935,-0.06817692518234253,0.02556634694337845,-0.020240023732185364,0.05267243832349777,-0.5542576909065247,9.77672290802002
1713723963715721935,-0.18322548270225525,0.019174760207533836,-0.024501081556081772,0.12330138683319092,-0.36990416049957275,10.043676376342773
1713723963725721935,-0.14061491191387177,-0.030892668291926384,-0.027696875855326653,0.13407529890537262,0.09816227108240128,9.141061782836914
1713723963735721935,-0.1022653877735138,-0.06817692518234253,-0.023435818031430244,-0.17477671802043915,0.16759411990642548,8.740033149719238
1713723963745721935,-0.007456851191818714,-0.05645901337265968,-0.012783173471689224,-0.2777273952960968,-0.20470423996448517,9.876081466674805
1713723963754721935,0.004261057823896408,0.004261057823896408,-0.003195793367922306,0.031124621629714966,-0.8798691034317017,11.54124927520752
1713723963764721935,0.00532632227987051,0.05326322093605995,0.001065264455974102,-0.043095629662275314,-1.3898340463638306,12.442666053771973
1713723963774721935,0.09587380290031433,0.030892668291926384,-0.004261057823896408,-0.2322375625371933,-1.0115501880645752,10.787075996398926
1713723963783721935,0.10013485699892044,-0.015978965908288956,-0.004261057823896408,-0.2322375625371933,-0.386663556098938,9.167398452758789
1713723963793721935,0.23329290747642517,-0.049002163112163544,-0.011717909015715122,-0.14245499670505524,0.1759738177061081,8.368931770324707
1713723963803721935,0.17044231295585632,-0.022370552644133568,-0.008522115647792816,-0.08499415963888168,0.3519476354122162,8.621520042419434
1713723963813721935,0.09161274135112762,0.009587380103766918,-0.008522115647792816,-0.043095629662275314,-0.021547814831137657,9.471461296081543
1713723963822721935,-0.04580637067556381,0.03515372797846794,-0.009587380103766918,0.035913024097681046,-0.26575639843940735,9.150638580322266
1713723963832721935,-0.1672465205192566,0.04261057823896408,-0.00532632227987051,0.08858545869588852,-0.19871874153614044,9.455899238586426
1713723963841721935,-0.17363810539245605,0.01065264455974102,-0.003195793367922306,0.152031809091568,0.043095629662275314,9.670180320739746
1713723963851721935,-0.09161274135112762,-0.049002163112163544,-0.004261057823896408,0.1173158809542656,0.26336216926574707,8.638279914855957
1713723963861721935,-0.05006742849946022,-0.06711165606975555,-0.001065264455974102,0.05626373738050461,0.020350713282823563,9.289502143859863
1713723963871721935,0.01810949482023716,-0.03302319720387459,0.001065264455974102,-0.026336219161748886,-0.6332663297653198,11.162964820861816
1713723963880721935,-0.03515372797846794,0.047936901450157166,0.008522115647792816,-0.1975216418504715,-1.4173673391342163,11.70166015625
1713723963890721935,0.02556634694337845,0.04687163606286049,0.001065264455974102,-0.2513911724090576,-1.624465823173523,12.149375915527344
1713723963900721935,0.09054747968912125,-0.015978965908288956,-0.003195793367922306,-0.33279404044151306,-0.750582218170166,10.144232749938965
1713723963910721935,0.185356006026268,-0.049002163112163544,-0.00532632227987051,-0.11372458189725876,0.04429272934794426,9.100360870361328
1713723963919721935,0.2918824553489685,-0.03621898964047432,-0.007456851191818714,0.10893617570400238,0.5542576909065247,8.577227592468262
1713723963929721935,0.23755396902561188,0.009587380103766918,0.001065264455974102,0.002394201699644327,0.9349357485771179,7.259219646453857
1713723963939721935,0.05965480953454971,0.04367584362626076,0.002130528911948204,0.019153613597154617,0.32202011346817017,9.105149269104004
1713723963948721935,-0.09693906456232071,0.03941478580236435,0.003195793367922306,0.13527239859104156,-0.4824316203594208,9.947907447814941
1713723963958721935,-0.2641855776309967,0.03621898964047432,0.006391586735844612,0.07062894850969315,-0.41539397835731506,9.654618263244629
1713723963968721935,-0.2780340313911438,0.002130528911948204,0.0,0.13287819921970367,-0.07900865375995636,10.301053047180176
1713723963977721935,-0.1257012039422989,-0.05752427875995636,-0.002130528911948204,0.26815059781074524,0.36750996112823486,8.524555206298828
1713723963987721935,-0.0788295716047287,-0.06391586363315582,0.0,0.02753331884741783,0.20231004059314728,8.9866361618042
1713723963997721935,0.07563377171754837,-0.009587380103766918,0.001065264455974102,-0.0933738648891449,-0.5099649429321289,11.050437927246094
1713723964007721935,0.002130528911948204,0.08628641813993454,0.013848437927663326,-0.10893617570400238,-1.4724340438842773,12.050017356872559
1713723964016721935,0.013848437927663326,0.10333064943552017,0.006391586735844612,-0.09457096457481384,-1.9057844877243042,13.15972900390625
1713723964026721935,0.11824434995651245,0.014913702383637428,-0.004261057823896408,-0.19153612852096558,-0.9756371974945068,10.272322654724121
1713723964036721935,0.1533980816602707,-0.049002163112163544,-0.003195793367922306,-0.14484919607639313,0.009576806798577309,8.722076416015625
1713723964045721935,0.333427757024765,-0.07563377171754837,-0.01065264455974102,-0.011971008032560349,0.7996633648872375,7.869740962982178
1713723964055721935,0.2407497614622116,-0.03515372797846794,0.0,-0.07781155407428741,0.7529764175415039,7.4088568687438965
1713723964065721935,0.09054747968912125,-0.001065264455974102,-0.001065264455974102,-0.10773907601833344,-0.06703764945268631,9.340977668762207
1713723964075721935,-0.09480853378772736,0.019174760207533836,-0.00532632227987051,0.0802057534456253,-0.44173020124435425,9.652223587036133
1713723964084721935,-0.2556634545326233,0.034088462591171265,-0.012783173471689224,0.25258827209472656,-0.19871874153614044,9.26675796508789
1713723964094721935,-0.29933929443359375,0.049002163112163544,-0.007456851191818714,0.23343466222286224,0.1999158412218094,8.96628475189209
1713723964104721935,-0.15446333587169647,0.002130528911948204,-0.011717909015715122,0.15322890877723694,0.37828385829925537,8.821435928344727
1713723964113721935,-0.10120011866092682,-0.029827404767274857,-0.00532632227987051,-0.05985504016280174,-0.09217676520347595,9.9371337890625
1713723964123721935,0.013848437927663326,-0.02876213937997818,-0.003195793367922306,-0.23942016065120697,-1.2270283699035645,12.407950401306152
1713723964133721935,0.011717909015715122,0.017044231295585632,0.0,-0.15322890877723694,-2.165555477142334,13.97375774383545
1713723964143721935,0.11078750342130661,0.00532632227987051,-0.01065264455974102,-0.10534487664699554,-1.7178397178649902,11.712434768676758
1713723964152721935,0.12889699637889862,-0.019174760207533836,-0.01065264455974102,-0.13168108463287354,-0.37229835987091064,8.684966087341309
1713723964162721935,0.2929477095603943,-0.034088462591171265,-0.015978965908288956,0.1304839849472046,0.5770025849342346,7.952340602874756
1713723964172721935,0.28549087047576904,0.009587380103766918,-0.006391586735844612,0.09935937076807022,0.7709329128265381,8.279149055480957
1713723964181721935,0.23755396902561188,0.03941478580236435,0.0,-0.015562310814857483,0.5829880833625793,7.860164165496826
1713723964191721935,0.02556634694337845,0.052197955548763275,0.0,0.1149216815829277,0.17238251864910126,8.620323181152344
1713723964201721935,-0.1619201898574829,0.026631610468029976,-0.008522115647792816,0.15562310814857483,-0.28730419278144836,9.961075782775879
1713723964211721935,-0.3004045784473419,0.012783173471689224,-0.009587380103766918,0.06703764945268631,-0.14006079733371735,9.41878890991211
1713723964220721935,-0.28122982382774353,-0.03302319720387459,-0.01810949482023716,0.05386953800916672,0.05985504016280174,9.854534149169922
1713723964230721935,-0.1438107043504715,-0.08309062570333481,-0.01810949482023716,-0.011971008032560349,0.11372458189725876,9.229647636413574
1713723964240721935,-0.07243797928094864,-0.07243797928094864,-0.014913702383637428,-0.04908113554120064,-0.5566518902778625,10.843338966369629
1713723964249721935,0.047936901450157166,0.003195793367922306,-0.01065264455974102,-0.25498247146606445,-1.478419542312622,12.442666053771973
1713723964259721935,0.049002163112163544,0.08628641813993454,0.001065264455974102,-0.35913026332855225,-1.7274165153503418,12.392387390136719
1713723964269721935,0.17044231295585632,0.06072007119655609,-0.004261057823896408,-0.27413609623908997,-1.0857704877853394,11.074379920959473
1713723964279721935,0.1896170675754547,0.015978965908288956,0.007456851191818714,-0.14724339544773102,-0.21428105235099792,9.29189682006836
1713723964288721935,0.3430151343345642,-0.023435818031430244,0.001065264455974102,0.090979665517807,0.590170681476593,7.921216011047363
1713723964298721935,0.2514024078845978,-0.01065264455974102,0.011717909015715122,-0.05267243832349777,0.8918401002883911,7.250839710235596
1713723964308721935,0.0649811327457428,-0.015978965908288956,0.001065264455974102,0.035913024097681046,0.5554547905921936,8.118738174438477
1713723964317721935,-0.07989483326673508,0.009587380103766918,0.00532632227987051,0.20350714027881622,0.1604115068912506,8.688557624816895
1713723964327721935,-0.24714134633541107,0.011717909015715122,-0.008522115647792816,0.16639702022075653,-0.09816227108240128,9.627084732055664
1713723964337721935,-0.3376888334751129,0.029827404767274857,-0.006391586735844612,0.16400282084941864,0.038307227194309235,9.261969566345215
1713723964346721935,-0.2514024078845978,-0.001065264455974102,-0.009587380103766918,0.090979665517807,0.0035913025494664907,9.585186004638672
1713723964356721935,-0.12144014239311218,-0.05752427875995636,-0.009587380103766918,0.10893617570400238,-0.22864626348018646,10.284293174743652
1713723964366721935,-0.022370552644133568,-0.049002163112163544,-0.007456851191818714,-0.013168109580874443,-0.8978255987167358,11.909955978393555
1713723964376721935,0.08202536404132843,0.023435818031430244,-0.002130528911948204,-0.2238578498363495,-1.5538368225097656,12.544419288635254
1713723964385721935,0.05432848632335663,0.10546118021011353,0.002130528911948204,-0.15322890877723694,-1.4197615385055542,11.60708999633789
1713723964395721935,0.15872439742088318,0.08415588736534119,-0.008522115647792816,-0.2322375625371933,-0.6045359373092651,9.823409080505371
1713723964405721935,0.1576591432094574,0.029827404767274857,0.001065264455974102,-0.14844051003456116,0.09696516394615173,8.675389289855957
1713723964415721935,0.28016453981399536,-0.02876213937997818,-0.00532632227987051,0.02274491637945175,0.5817909836769104,7.976282596588135
1713723964424721935,0.17470337450504303,-0.034088462591171265,0.0,-0.02274491637945175,0.5434837937355042,8.039729118347168
1713723964434721935,0.006391586735844612,-0.04367584362626076,-0.011717909015715122,0.1364694982767105,0.17717091739177704,8.888473510742188
1713723964444721935,-0.15126754343509674,-0.003195793367922306,-0.01065264455974102,0.22864626348018646,-0.08858545869588852,9.296685218811035
1713723964453721935,-0.2514024078845978,0.020240023732185364,-0.015978965908288956,0.15442600846290588,-0.208295539021492,9.695319175720215
1713723964463721935,-0.28549087047576904,0.03834952041506767,-0.013848437927663326,0.1999158412218094,-0.15442600846290588,10.06043529510498
1713723964473721935,-0.10972223430871964,-0.017044231295585632,-0.020240023732185364,0.020350713282823563,-0.1149216815829277,9.710882186889648
1713723964483721935,-0.07776430249214172,-0.04048004746437073,-0.012783173471689224,-0.22026655077934265,-0.4129997789859772,10.114304542541504
1713723964492721935,0.08096009492874146,-0.023435818031430244,-0.013848437927663326,-0.23702596127986908,-1.037886381149292,11.528080940246582
1713723964502721935,0.029827404767274857,0.058589544147253036,-0.001065264455974102,-0.15801730751991272,-1.4484920501708984,12.075156211853027
1713723964512721935,0.10333064943552017,0.07030745595693588,-0.011717909015715122,-0.16879121959209442,-1.2006921768188477,11.590330123901367
1713723964521721935,0.13741911947727203,0.022370552644133568,-0.012783173471689224,-0.23702596127986908,-0.30885201692581177,8.926780700683594
1713723964531721935,0.20666129887104034,-0.03515372797846794,-0.013848437927663326,0.09457096457481384,0.31364041566848755,8.300697326660156
1713723964541721935,0.23009711503982544,-0.0511326938867569,-0.022370552644133568,0.13766659796237946,0.5674257874488831,8.47786808013916
1713723964550721935,0.14168016612529755,-0.026631610468029976,-0.01810949482023716,0.013168109580874443,0.4836287498474121,8.134300231933594
1713723964560721935,-0.007456851191818714,0.00532632227987051,-0.019174760207533836,-0.011971008032560349,0.1280897855758667,9.046490669250488
1713723964570721935,-0.14487595856189728,0.029827404767274857,-0.015978965908288956,-0.08499415963888168,-0.014365210197865963,9.39484691619873
1713723964579721935,-0.24714134633541107,0.049002163112163544,-0.011717909015715122,-0.09217676520347595,0.08379705995321274,9.275136947631836
1713723964589721935,-0.20985709130764008,0.022370552644133568,-0.01065264455974102,-0.1388636976480484,0.1304839849472046,9.744400978088379
1713723964599721935,-0.10120011866092682,-0.03941478580236435,-0.007456851191818714,-0.16160860657691956,0.14365209639072418,9.32541561126709
1713723964609721935,-0.06711165606975555,-0.06072007119655609,-0.001065264455974102,-0.20949263870716095,-0.4967968463897705,11.12226390838623
1713723964618721935,0.02556634694337845,-0.019174760207533836,0.007456851191818714,-0.3734954595565796,-1.2988543510437012,12.326547622680664
1713723964628721935,-0.009587380103766918,0.055393751710653305,0.02130528911948204,-0.47405192255973816,-1.4760253429412842,11.968613624572754
1713723964638721935,0.12357067316770554,0.03941478580236435,0.017044231295585632,-0.47165772318840027,-0.8858546018600464,10.518924713134766
1713723964647721935,0.14274543523788452,0.01065264455974102,0.027696875855326653,-0.3687070608139038,-0.0694318488240242,8.912415504455566
1713723964657721935,0.3142530024051666,-0.020240023732185364,0.02556634694337845,-0.25019407272338867,0.6416460275650024,8.090007781982422
1713723964667721935,0.23009711503982544,0.006391586735844612,0.03941478580236435,-0.3124433159828186,0.811634361743927,7.734468460083008
1713723964676721935,0.11291802674531937,0.02556634694337845,0.04048004746437073,-0.25019407272338867,0.3232172131538391,8.56645393371582
1713723964686721935,-0.09800432622432709,0.03195793181657791,0.03621898964047432,-0.11851298063993454,-0.08978256583213806,9.062053680419922
1713723964696721935,-0.2641855776309967,0.020240023732185364,0.029827404767274857,-0.05506663769483566,-0.1604115068912506,9.618704795837402
1713723964706721935,-0.3344930410385132,0.006391586735844612,0.03515372797846794,-0.02753331884741783,-0.06224924325942993,9.865307807922363
1713723964716721935,-0.17789916694164276,-0.06604639440774918,0.03195793181657791,-0.13287819921970367,0.0454898327589035,9.283516883850098
1713723964725721935,-0.13635385036468506,-0.08628641813993454,0.041545312851667404,-0.2537853717803955,-0.15442600846290588,9.793481826782227
1713723964735721935,0.03195793181657791,-0.044741105288267136,0.04580637067556381,-0.2238578498363495,-0.8906430006027222,11.720813751220703
1713723964745721935,0.006391586735844612,0.06391586363315582,0.06072007119655609,-0.09457096457481384,-1.7764976024627686,12.8748197555542
1713723964754721935,0.10972223430871964,0.08096009492874146,0.049002163112163544,-0.0011971008498221636,-1.624465823173523,11.926715850830078
1713723964764721935,0.14487595856189728,0.03621898964047432,0.04687163606286049,-0.25019407272338867,-0.48722004890441895,8.926780700683594
1713723964774721935,0.2545982003211975,-0.013848437927663326,0.044741105288267136,-0.1173158809542656,0.2717418968677521,8.301894187927246
1713723964783721935,0.28016453981399536,-0.02130528911948204,0.04687163606286049,0.05506663769483566,0.6464344263076782,8.447940826416016
1713723964793721935,0.19174760580062866,-0.003195793367922306,0.055393751710653305,-0.23104046285152435,0.5734112858772278,7.838616371154785
1713723964803721935,-0.007456851191818714,0.020240023732185364,0.05326322093605995,-0.24061726033687592,0.08738835901021957,8.833407402038574
1713723964813721935,-0.1768338978290558,0.026631610468029976,0.052197955548763275,-0.07062894850969315,-0.20231004059314728,9.691728591918945
1713723964822721935,-0.3099919557571411,0.03834952041506767,0.05432848632335663,-0.05506663769483566,-0.12210428714752197,9.5624418258667
1713723964832721935,-0.2631203234195709,0.004261057823896408,0.05006742849946022,0.0586579404771328,-0.08499415963888168,10.050858497619629
1713723964842721935,-0.12463594228029251,-0.0649811327457428,0.04261057823896408,0.20470423996448517,-0.05746084079146385,9.321824073791504
1713723964851721935,-0.06391586363315582,-0.07989483326673508,0.034088462591171265,0.19393032789230347,-0.7230489253997803,11.129446029663086
1713723964861721935,0.0649811327457428,-0.027696875855326653,0.026631610468029976,0.4572925269603729,-1.722628116607666,12.589909553527832
1713723964871721935,0.006391586735844612,0.052197955548763275,0.017044231295585632,0.591367781162262,-1.7585411071777344,11.669339179992676
1713723964881721935,0.1299622654914856,0.0649811327457428,-0.002130528911948204,0.37229835987091064,-0.7493851184844971,10.042478561401367
1713723964890721935,0.15659387409687042,0.04687163606286049,-0.002130528911948204,0.3208230137825012,0.25737667083740234,8.394070625305176
1713723964900721935,0.31744879484176636,0.003195793367922306,-0.011717909015715122,0.272938996553421,0.7673416137695312,7.50582218170166
1713723964910721935,0.21624867618083954,0.004261057823896408,-0.008522115647792816,0.1256955862045288,0.5051765441894531,8.287528991699219
1713723964919721935,0.07776430249214172,0.002130528911948204,-0.014913702383637428,0.23582886159420013,-0.2693476974964142,9.933542251586914
1713723964929721935,-0.14594122767448425,0.002130528911948204,-0.027696875855326653,0.2609679698944092,-0.6619967818260193,9.848548889160156
1713723964939721935,-0.29933929443359375,0.008522115647792816,-0.03195793181657791,0.02992752008140087,-0.39145198464393616,9.718064308166504
1713723964949721935,-0.24714134633541107,-0.008522115647792816,-0.02556634694337845,-0.09816227108240128,0.0802057534456253,9.350554466247559
1713723964958721935,-0.1022653877735138,-0.06924218684434891,-0.02876213937997818,-0.09217676520347595,0.20231004059314728,8.965087890625
1713723964968721935,-0.00532632227987051,-0.06817692518234253,-0.02876213937997818,-0.019153613597154617,-0.2693476974964142,10.451887130737305
1713723964978721935,0.10333064943552017,-0.008522115647792816,-0.02876213937997818,0.16519992053508759,-1.115697979927063,12.190077781677246
1713723964987721935,0.037284255027770996,0.07989483326673508,-0.023435818031430244,0.11971008032560349,-1.425747036933899,11.51611042022705
1713723964997721935,0.03834952041506767,0.11398329585790634,-0.02130528911948204,-0.19871874153614044,-0.9744400978088379,10.710460662841797
1713723965007721935,0.12357067316770554,0.06178533658385277,-0.019174760207533836,-0.5746083855628967,0.031124621629714966,8.538920402526855
1713723965016721935,0.17257283627986908,0.012783173471689224,-0.006391586735844612,-0.4118026793003082,0.6404489278793335,8.030152320861816
1713723965026721935,0.222640261054039,-0.024501081556081772,-0.004261057823896408,-0.16998831927776337,0.5374982953071594,8.675389289855957
1713723965036721935,0.09587380290031433,-0.019174760207533836,0.002130528911948204,-0.27892449498176575,0.008379706181585789,8.851363182067871
1713723965045721935,-0.09693906456232071,-0.006391586735844612,-0.008522115647792816,-0.24899697303771973,-0.6871358752250671,10.340557098388672
1713723965055721935,-0.22477079927921295,0.01810949482023716,-0.011717909015715122,-0.21428105235099792,-0.46327802538871765,10.006566047668457
1713723965065721935,-0.20772656798362732,0.011717909015715122,-0.007456851191818714,-0.23822306096553802,0.16998831927776337,9.525331497192383
1713723965075721935,-0.07989483326673508,-0.03941478580236435,-0.007456851191818714,-0.20231004059314728,0.4321534037590027,8.700529098510742
1713723965085721935,-0.012783173471689224,-0.055393751710653305,-0.003195793367922306,-0.021547814831137657,0.043095629662275314,9.587580680847168
1713723965094721935,0.07456851005554199,-0.023435818031430244,-0.003195793367922306,0.13527239859104156,-0.8092401623725891,11.597513198852539
1713723965104721935,-0.002130528911948204,0.04580637067556381,0.004261057823896408,0.34835633635520935,-1.5203180313110352,11.526884078979492
1713723965114721935,-0.03834952041506767,0.07137271761894226,-0.001065264455974102,0.181959331035614,-1.4975731372833252,11.967416763305664
1713723965123721935,0.0884169489145279,0.022370552644133568,-0.004261057823896408,-0.33758243918418884,-0.3663128614425659,9.619902610778809
1713723965133721935,0.1299622654914856,-0.011717909015715122,0.001065264455974102,-0.22744916379451752,0.41778817772865295,8.177395820617676
1713723965143721935,0.2833603322505951,-0.034088462591171265,-0.009587380103766918,0.0035913025494664907,0.5961562395095825,7.964311599731445
1713723965152721935,0.1619201898574829,0.003195793367922306,0.002130528911948204,-0.11851298063993454,0.23702596127986908,8.494627952575684
1713723965162721935,0.001065264455974102,0.02556634694337845,-0.01065264455974102,-0.13168108463287354,-0.5243301391601562,10.536881446838379
1713723965172721935,-0.15872439742088318,0.044741105288267136,-0.013848437927663326,0.002394201699644327,-0.5506663918495178,9.850942611694336
1713723965182721935,-0.25779399275779724,0.041545312851667404,-0.01065264455974102,-0.1975216418504715,-0.07661445438861847,9.603142738342285
1713723965191721935,-0.12357067316770554,-0.014913702383637428,-0.008522115647792816,-0.18794482946395874,0.3770867586135864,8.595184326171875
1713723965201721935,-0.09693906456232071,-0.06178533658385277,-0.003195793367922306,-0.06703764945268631,0.2346317619085312,8.753201484680176
1713723965211721935,0.044741105288267136,-0.06604639440774918,-0.007456851191818714,-0.28131869435310364,-0.3471592366695404,10.619481086730957
1713723965220721935,0.00532632227987051,0.002130528911948204,0.002130528911948204,0.14365209639072418,-1.1097124814987183,11.826159477233887
1713723965230721935,-0.041545312851667404,0.055393751710653305,-0.006391586735844612,0.3627215623855591,-1.624465823173523,12.48935317993164
1713723965240721935,0.04580637067556381,0.0511326938867569,-0.008522115647792816,-0.104147769510746,-0.8355763554573059,10.170568466186523
1713723965250721935,0.0788295716047287,0.02556634694337845,-0.002130528911948204,-0.3758896589279175,0.24181437492370605,8.079233169555664
1713723965259721935,0.23435817658901215,0.001065264455974102,-0.001065264455974102,-0.19632454216480255,0.727837324142456,7.918821811676025
1713723965269721935,0.19387812912464142,0.014913702383637428,0.007456851191818714,-0.026336219161748886,0.3890577554702759,9.137470245361328
1713723965279721935,0.09374327212572098,0.03195793181657791,0.00532632227987051,-0.11013327538967133,-0.304063618183136,9.815030097961426
1713723965288721935,-0.10333064943552017,0.03941478580236435,-0.00532632227987051,0.03232172131538391,-0.5985504388809204,9.697713851928711
1713723965298721935,-0.23755396902561188,0.027696875855326653,-0.01065264455974102,0.013168109580874443,-0.3280056416988373,9.673771858215332
1713723965308721935,-0.19387812912464142,-0.013848437927663326,-0.007456851191818714,-0.40701428055763245,0.18555063009262085,8.918400764465332
1713723965317721935,-0.10865697264671326,-0.07030745595693588,-0.01065264455974102,-0.3794809579849243,0.3100491166114807,8.773551940917969
1713723965327721935,-0.019174760207533836,-0.07776430249214172,-0.01065264455974102,-0.13527239859104156,-0.20111294090747833,10.42195987701416
1713723965337721935,0.03302319720387459,-0.026631610468029976,-0.009587380103766918,0.03711012750864029,-1.0510544776916504,11.807005882263184
1713723965347721935,-0.02556634694337845,0.044741105288267136,-0.009587380103766918,0.22625206410884857,-1.5622166395187378,11.760318756103516
1713723965356721935,0.03621898964047432,0.052197955548763275,-0.015978965908288956,0.090979665517807,-1.0857704877853394,10.911574363708496
1713723965366721935,0.0788295716047287,0.03195793181657791,-0.003195793367922306,-0.333991140127182,-0.03232172131538391,8.90882396697998
1713723965376721935,0.20559602975845337,0.01810949482023716,0.00532632227987051,-0.3315969407558441,0.5638344883918762,8.246828079223633
1713723965386721935,0.22050973773002625,0.02130528911948204,0.007456851191818714,-0.0933738648891449,0.4704606235027313,8.827421188354492
1713723965395721935,0.12357067316770554,0.027696875855326653,0.01065264455974102,-0.08978256583213806,-0.11851298063993454,9.01895809173584
1713723965405721935,-0.07669904083013535,0.014913702383637428,-0.004261057823896408,0.19871874153614044,-0.7481880187988281,10.019734382629395
1713723965415721935,-0.22157500684261322,-0.004261057823896408,-0.015978965908288956,0.24181437492370605,-0.608127236366272,10.346542358398438
1713723965424721935,-0.2364886999130249,-0.019174760207533836,-0.012783173471689224,-0.1364694982767105,-0.005985504016280174,9.747992515563965
1713723965434721935,-0.11078750342130661,-0.04580637067556381,-0.01065264455974102,-0.3627215623855591,0.3770867586135864,8.475473403930664
1713723965444721935,-0.041545312851667404,-0.029827404767274857,-0.002130528911948204,-0.26575639843940735,0.1388636976480484,8.991424560546875
1713723965453721935,0.06817692518234253,0.004261057823896408,-0.004261057823896408,0.05626373738050461,-0.6607996821403503,11.125855445861816
1713723965463721935,0.00532632227987051,0.06285060197114944,-0.003195793367922306,0.3292027413845062,-1.422155737876892,11.771092414855957
1713723965473721935,0.022370552644133568,0.04580637067556381,-0.02130528911948204,0.16998831927776337,-1.4856021404266357,11.895590782165527
1713723965482721935,0.05752427875995636,-0.00532632227987051,-0.020240023732185364,-0.1759738177061081,-0.5865793824195862,9.770736694335938
1713723965492721935,0.13315805792808533,-0.03195793181657791,-0.020240023732185364,-0.27653029561042786,0.27413609623908997,8.60236644744873
1713723965502721935,0.2173139452934265,-0.007456851191818714,-0.015978965908288956,-0.23582886159420013,0.7146691679954529,8.38688850402832
1713723965512721935,0.16298545897006989,0.03302319720387459,-0.00532632227987051,-0.15562310814857483,0.590170681476593,7.728482723236084
1713723965522721935,0.01065264455974102,0.05326322093605995,-0.007456851191818714,-0.09576806426048279,-0.06823474913835526,9.230844497680664
1713723965531721935,-0.14274543523788452,0.041545312851667404,-0.013848437927663326,-0.017956512048840523,-0.5985504388809204,10.39083480834961
1713723965541721935,-0.2631203234195709,0.014913702383637428,-0.012783173471689224,-0.08619125932455063,-0.5494692921638489,10.560823440551758
1713723965551721935,-0.1672465205192566,-0.0511326938867569,-0.013848437927663326,-0.264559268951416,0.0694318488240242,9.245209693908691
1713723965560721935,-0.11504855751991272,-0.07776430249214172,-0.006391586735844612,-0.4513069987297058,0.3687070608139038,8.538920402526855
1713723965570721935,0.04580637067556381,-0.05645901337265968,-0.006391586735844612,-0.31364041566848755,-0.05506663769483566,9.77791976928711
1713723965580721935,0.04048004746437073,0.02556634694337845,-0.001065264455974102,0.10654197633266449,-0.9229647517204285,11.456254959106445
1713723965589721935,-0.012783173471689224,0.08522115647792816,-0.006391586735844612,0.2609679698944092,-1.6867151260375977,12.31098461151123
1713723965599721935,0.023435818031430244,0.05645901337265968,-0.01810949482023716,0.22625206410884857,-1.3407529592514038,11.025299072265625
1713723965609721935,0.03941478580236435,-0.006391586735844612,-0.015978965908288956,-0.026336219161748886,-0.4189852774143219,9.289502143859863
1713723965619721935,0.15552860498428345,-0.029827404767274857,-0.014913702383637428,-0.3627215623855591,0.2585737705230713,8.842984199523926
1713723965628721935,0.20772656798362732,0.0,-0.008522115647792816,-0.14484919607639313,0.5805938839912415,8.701725959777832
1713723965638721935,0.1619201898574829,0.03941478580236435,-0.001065264455974102,0.043095629662275314,0.4513069987297058,7.770381450653076
1713723965648721935,0.003195793367922306,0.06285060197114944,-0.00532632227987051,-0.0802057534456253,-0.043095629662275314,8.951919555664062
1713723965657721935,-0.14061491191387177,0.052197955548763275,-0.014913702383637428,-0.09816227108240128,-0.39624038338661194,10.27591323852539
1713723965667721935,-0.24927188456058502,0.027696875855326653,-0.013848437927663326,-0.18555063009262085,-0.35314473509788513,10.049661636352539
1713723965677721935,-0.1768338978290558,-0.04687163606286049,-0.01810949482023716,-0.33997663855552673,-0.08140285313129425,9.349357604980469
1713723965687721935,-0.13102751970291138,-0.0884169489145279,-0.012783173471689224,-0.5099649429321289,0.010773907415568829,9.165003776550293
1713723965696721935,-0.006391586735844612,-0.07456851005554199,-0.012783173471689224,-0.3495534360408783,-0.3471592366695404,10.66137981414795
1713723965706721935,0.03195793181657791,0.003195793367922306,-0.009587380103766918,0.08858545869588852,-0.872686505317688,11.343727111816406
1713723965715721935,0.003195793367922306,0.07137271761894226,-0.011717909015715122,0.24061726033687592,-1.2557587623596191,11.322179794311523
1713723965725721935,0.05645901337265968,0.06604639440774918,-0.020240023732185364,0.1604115068912506,-0.9660603404045105,10.643423080444336
1713723965735721935,0.06285060197114944,0.02556634694337845,-0.012783173471689224,-0.07661445438861847,-0.3711012601852417,9.355342864990234
1713723965745721935,0.15126754343509674,-0.00532632227987051,-0.011717909015715122,-0.3016694188117981,0.028730420395731926,8.924386978149414
1713723965754721935,0.14274543523788452,0.0,-0.01065264455974102,-0.14604629576206207,0.2908954918384552,8.852560997009277
1713723965764721935,0.09480853378772736,0.00532632227987051,-0.009587380103766918,-0.06823474913835526,0.2190694510936737,8.497021675109863
1713723965774721935,-0.026631610468029976,0.008522115647792816,-0.017044231295585632,-0.19033902883529663,-0.07781155407428741,8.936357498168945
1713723965784721935,-0.12889699637889862,0.002130528911948204,-0.022370552644133568,-0.19273322820663452,-0.11851298063993454,9.634267807006836
1713723965793721935,-0.19600865244865417,-0.009587380103766918,-0.020240023732185364,-0.2322375625371933,0.004788403399288654,9.39365005493164
1713723965803721935,-0.14913702011108398,-0.03941478580236435,-0.023435818031430244,-0.386663556098938,-0.06703764945268631,9.453505516052246
1713723965813721935,-0.10439591109752655,-0.0649811327457428,-0.02130528911948204,-0.3579331338405609,-0.36152446269989014,10.11550235748291
1713723965822721935,-0.05645901337265968,-0.06178533658385277,-0.019174760207533836,-0.019153613597154617,-1.0330979824066162,11.584344863891602
1713723965832721935,-0.012783173471689224,-0.02876213937997818,-0.022370552644133568,0.35673603415489197,-1.6555904150009155,12.558784484863281
1713723965842721935,0.047936901450157166,0.0,-0.02556634694337845,0.4189852774143219,-1.460463047027588,11.350910186767578
1713723965852721935,0.092678003013134,0.024501081556081772,-0.019174760207533836,0.0933738648891449,-0.6979097723960876,9.661800384521484
1713723965861721935,0.19600865244865417,0.05432848632335663,-0.013848437927663326,-0.24061726033687592,0.09576806426048279,8.811859130859375
1713723965871721935,0.23116238415241241,0.08628641813993454,-0.006391586735844612,-0.1711854189634323,0.5386953949928284,8.285135269165039
1713723965881721935,0.1906823366880417,0.07350324839353561,-0.003195793367922306,-0.12689268589019775,0.42018237709999084,7.993042469024658
1713723965890721935,0.06072007119655609,0.027696875855326653,-0.012783173471689224,-0.24779987335205078,-0.0035913025494664907,8.746018409729004
1713723965900721935,-0.092678003013134,-0.034088462591171265,-0.023435818031430244,-0.25977087020874023,-0.3232172131538391,9.959878921508789
1713723965910721935,-0.2087918221950531,-0.06924218684434891,-0.029827404767274857,-0.33279404044151306,-0.1735796183347702,9.787496566772461
1713723965919721935,-0.2514024078845978,-0.06924218684434891,-0.024501081556081772,-0.333991140127182,0.11971008032560349,9.148244857788086
1713723965929117948,-0.1533980816602707,-0.06072007119655609,-0.023435818031430244,-0.24899697303771973,0.14484919607639313,8.78073501586914
1713723965939117948,-0.08522115647792816,-0.04367584362626076,-0.019174760207533836,-0.2861070930957794,-0.3687070608139038,10.145429611206055
1713723965949117948,-0.013848437927663326,-0.017044231295585632,-0.015978965908288956,-0.035913024097681046,-1.258152961730957,12.314576148986816
1713723965958117948,0.04261057823896408,0.00532632227987051,-0.022370552644133568,0.38546645641326904,-1.8483237028121948,12.810175895690918
1713723965968117948,0.0788295716047287,0.008522115647792816,-0.02130528911948204,0.3519476354122162,-1.525106430053711,11.39400577545166
1713723965978117948,0.11078750342130661,0.02130528911948204,-0.011717909015715122,-0.05506663769483566,-0.6165069341659546,9.701305389404297
1713723965987117948,0.222640261054039,0.05326322093605995,-0.006391586735844612,-0.4884171485900879,0.4213795065879822,8.307879447937012
1713723965997117948,0.22796659171581268,0.08415588736534119,0.004261057823896408,-0.3387795388698578,0.8870517015457153,7.399280071258545
1713723966007117948,0.1672465205192566,0.05965480953454971,0.002130528911948204,-0.06703764945268631,0.5386953949928284,7.790732383728027
1713723966017117948,0.03834952041506767,0.004261057823896408,-0.01065264455974102,-0.22864626348018646,0.1496376097202301,8.682572364807129
1713723966026117948,-0.12357067316770554,-0.05645901337265968,-0.02130528911948204,-0.28371289372444153,-0.13766659796237946,9.642646789550781
1713723966036117948,-0.24714134633541107,-0.08096009492874146,-0.02556634694337845,-0.2059013396501541,-0.10654197633266449,9.63187313079834
1713723966046117948,-0.296143501996994,-0.06604639440774918,-0.015978965908288956,-0.27653029561042786,-0.04668693244457245,9.63306999206543
1713723966055117948,-0.1619201898574829,-0.05965480953454971,-0.014913702383637428,-0.2885012924671173,-0.25737667083740234,9.973047256469727
1713723966065117948,-0.06817692518234253,-0.05752427875995636,-0.009587380103766918,-0.16160860657691956,-0.8224082589149475,11.064803123474121
1713723966075117948,0.023435818031430244,-0.03834952041506767,-0.009587380103766918,0.2717418968677521,-1.7094600200653076,12.665327072143555
1713723966084117948,0.0884169489145279,0.012783173471689224,-0.019174760207533836,0.5219359397888184,-1.7776947021484375,12.302605628967285
1713723966094117948,0.12889699637889862,0.06072007119655609,-0.020240023732185364,0.31364041566848755,-0.9852139949798584,10.362104415893555
1713723966104117948,0.15446333587169647,0.07669904083013535,-0.011717909015715122,-0.11252747476100922,-0.24420857429504395,8.665812492370605
1713723966113117948,0.21624867618083954,0.0649811327457428,-0.006391586735844612,-0.47165772318840027,0.36750996112823486,8.157045364379883
1713723966123117948,0.20559602975845337,0.041545312851667404,-0.002130528911948204,-0.27892449498176575,0.6200982332229614,8.273163795471191
1713723966133117948,0.13315805792808533,-0.002130528911948204,-0.00532632227987051,-0.18315643072128296,0.3794809579849243,8.10437297821045
1713723966143117948,-0.014913702383637428,-0.04580637067556381,-0.011717909015715122,-0.26815059781074524,0.010773907415568829,8.89565658569336
1713723966152117948,-0.15126754343509674,-0.06711165606975555,-0.02130528911948204,-0.2537853717803955,-0.12210428714752197,9.720458984375
1713723966162117948,-0.24394555389881134,-0.05006742849946022,-0.019174760207533836,-0.22266075015068054,-0.10534487664699554,9.264363288879395
1713723966172117948,-0.2460760921239853,-0.02556634694337845,-0.013848437927663326,-0.21188685297966003,-0.32202011346817017,10.499771118164062
1713723966182117948,-0.08096009492874146,-0.047936901450157166,-0.014913702383637428,-0.272938996553421,-0.6224924325942993,11.188104629516602
1713723966191117948,-0.026631610468029976,-0.05965480953454971,-0.01065264455974102,-0.20111294090747833,-1.1731587648391724,11.262324333190918
1713723966201117948,0.092678003013134,-0.04367584362626076,-0.015978965908288956,0.24660277366638184,-1.5861586332321167,11.854889869689941
1713723966211117948,0.09480853378772736,0.03515372797846794,-0.01065264455974102,0.46088382601737976,-1.157596468925476,10.827776908874512
1713723966221117948,0.13102751970291138,0.09161274135112762,-0.009587380103766918,0.019153613597154617,-0.3890577554702759,9.434351921081543
1713723966230117948,0.1672465205192566,0.10120011866092682,-0.001065264455974102,-0.4800374209880829,0.3842693567276001,8.192957878112793
1713723966240117948,0.18855179846286774,0.06178533658385277,0.006391586735844612,-0.264559268951416,0.712274968624115,8.034940719604492
1713723966249117948,0.15552860498428345,-0.007456851191818714,0.002130528911948204,0.026336219161748886,0.447715699672699,8.343792915344238
1713723966259117948,0.034088462591171265,-0.06817692518234253,-0.004261057823896408,-0.14484919607639313,-0.05027823522686958,8.992621421813965
1713723966269117948,-0.11717908829450607,-0.09054747968912125,-0.020240023732185364,-0.08858545869588852,-0.355538934469223,9.803058624267578
1713723966278117948,-0.22796659171581268,-0.06711165606975555,-0.02130528911948204,-0.02753331884741783,-0.24779987335205078,9.684545516967773
1713723966288117948,-0.2545982003211975,-0.013848437927663326,-0.011717909015715122,-0.18555063009262085,-0.19153612852096558,10.02452278137207
1713723966298117948,-0.08096009492874146,-0.01065264455974102,-0.014913702383637428,-0.24899697303771973,-0.21188685297966003,9.77791976928711
1713723966308117948,-0.022370552644133568,-0.02556634694337845,-0.009587380103766918,-0.21308395266532898,-0.5303156971931458,10.231620788574219
1713723966318117948,0.09587380290031433,-0.03195793181657791,-0.012783173471689224,0.09217676520347595,-1.1971008777618408,11.865663528442383
1713723966327117948,0.08415588736534119,0.00532632227987051,-0.019174760207533836,0.4429273009300232,-1.359906554222107,11.797429084777832
1713723966337117948,0.06072007119655609,0.049002163112163544,-0.019174760207533836,0.30885201692581177,-0.7469909191131592,9.787496566772461
1713723966347117948,0.05326322093605995,0.06711165606975555,-0.013848437927663326,-0.08379705995321274,0.008379706181585789,8.435969352722168
1713723966357117948,0.07989483326673508,0.055393751710653305,-0.006391586735844612,-0.4189852774143219,0.4106055796146393,8.327033042907715
1713723966366117948,0.10013485699892044,0.02130528911948204,0.0,-0.34835633635520935,0.395043283700943,8.42160415649414
1713723966376117948,0.05326322093605995,-0.02556634694337845,-0.00532632227987051,-0.22744916379451752,0.02753331884741783,9.289502143859863
1713723966385117948,-0.03302319720387459,-0.06285060197114944,-0.012783173471689224,-0.15682020783424377,-0.3794809579849243,9.927556991577148
1713723966395117948,-0.13315805792808533,-0.07243797928094864,-0.019174760207533836,0.019153613597154617,-0.5171475410461426,10.14902114868164
1713723966405117948,-0.16831177473068237,-0.0511326938867569,-0.019174760207533836,0.008379706181585789,-0.3148375153541565,9.551667213439941
1713723966415117948,-0.09374327212572098,-0.022370552644133568,-0.01810949482023716,-0.1843535304069519,-0.05506663769483566,9.306262016296387
1713723966424117948,-0.012783173471689224,-0.002130528911948204,-0.015978965908288956,-0.28371289372444153,-0.13766659796237946,9.90241813659668
1713723966434117948,0.047936901450157166,0.013848437927663326,-0.01065264455974102,-0.06344634294509888,-0.6919242739677429,11.012130737304688
1713723966444117948,0.0649811327457428,0.019174760207533836,-0.014913702383637428,0.24181437492370605,-1.137245774269104,11.415553092956543
1713723966453117948,0.037284255027770996,0.007456851191818714,-0.020240023732185364,0.2298433631658554,-1.0522515773773193,10.805031776428223
1713723966463117948,0.03195793181657791,-0.017044231295585632,-0.015978965908288956,0.04668693244457245,-0.5506663918495178,9.70010757446289
1713723966473117948,0.0511326938867569,-0.02556634694337845,-0.013848437927663326,-0.20350714027881622,-0.03950432687997818,8.848969459533691
1713723966483117948,0.09480853378772736,-0.004261057823896408,-0.009587380103766918,-0.29209259152412415,0.22266075015068054,8.730456352233887
1713723966492117948,0.08522115647792816,0.020240023732185364,-0.006391586735844612,-0.10175357013940811,0.19632454216480255,8.574832916259766
1713723966502117948,0.019174760207533836,0.02556634694337845,-0.007456851191818714,-0.047884032130241394,-0.13766659796237946,9.334992408752441
1713723966512117948,-0.06072007119655609,0.01065264455974102,-0.01065264455974102,-0.09217676520347595,-0.3794809579849243,10.11669921875
1713723966521117948,-0.11504855751991272,-0.012783173471689224,-0.01065264455974102,-0.0454898327589035,-0.3232172131538391,10.15021800994873
1713723966531117948,-0.08309062570333481,-0.041545312851667404,-0.011717909015715122,-0.1304839849472046,-0.05626373738050461,9.32661247253418
1713723966541117948,-0.06604639440774918,-0.04367584362626076,-0.01065264455974102,-0.2861070930957794,0.028730420395731926,8.973467826843262
1713723966551117948,-0.008522115647792816,-0.022370552644133568,-0.009587380103766918,-0.1711854189634323,-0.3280056416988373,10.010157585144043
1713723966560117948,-0.006391586735844612,0.004261057823896408,-0.01065264455974102,0.20111294090747833,-1.0007762908935547,11.382034301757812
1713723966570117948,0.023435818031430244,-0.014913702383637428,-0.020240023732185364,0.3016694188117981,-1.4628572463989258,11.88242244720459
1713723966580117948,0.03195793181657791,-0.03515372797846794,-0.01810949482023716,0.19632454216480255,-1.1300631761550903,10.765527725219727
1713723966589117948,0.09906959533691406,-0.024501081556081772,-0.020240023732185364,0.10773907601833344,-0.3579331338405609,9.403226852416992
1713723966599117948,0.15126754343509674,0.03515372797846794,-0.014913702383637428,-0.1280897855758667,0.264559268951416,8.621520042419434
1713723966609117948,0.1672465205192566,0.08202536404132843,-0.008522115647792816,-0.08619125932455063,0.5027823448181152,8.022970199584961
1713723966619117948,0.10972223430871964,0.07563377171754837,-0.006391586735844612,-0.004788403399288654,0.29807811975479126,8.366538047790527
1713723966628117948,0.006391586735844612,0.02876213937997818,-0.013848437927663326,-0.11013327538967133,-0.16519992053508759,9.552865028381348
1713723966638117948,-0.10972223430871964,-0.02876213937997818,-0.019174760207533836,-0.1412578970193863,-0.416591078042984,10.120290756225586
1713723966648117948,-0.18855179846286774,-0.06711165606975555,-0.020240023732185364,-0.13168108463287354,-0.29448679089546204,9.605537414550781
1713723966657117948,-0.16618125140666962,-0.07350324839353561,-0.019174760207533836,-0.2513911724090576,-0.08738835901021957,9.23682975769043
1713723966667117948,-0.08309062570333481,-0.058589544147253036,-0.01810949482023716,-0.28969839215278625,-0.07900865375995636,9.66539192199707
1713723966677117948,-0.015978965908288956,-0.014913702383637428,-0.011717909015715122,-0.0454898327589035,-0.5099649429321289,10.855310440063477
1713723966686117948,0.049002163112163544,0.03302319720387459,-0.011717909015715122,0.3543418347835541,-1.1839326620101929,11.73278522491455
1713723966696117948,0.0788295716047287,0.047936901450157166,-0.020240023732185364,0.33997663855552673,-1.4089876413345337,11.512518882751465
1713723966706117948,0.09161274135112762,0.034088462591171265,-0.015978965908288956,0.05506663769483566,-0.9217676520347595,10.212467193603516
1713723966716117948,0.13209278881549835,0.017044231295585632,-0.013848437927663326,-0.14604629576206207,-0.21787235140800476,9.17697525024414
1713723966726117948,0.1715075671672821,0.024501081556081772,-0.015978965908288956,-0.27054479718208313,0.32202011346817017,8.591592788696289
1713723966735117948,0.148071750998497,0.02556634694337845,-0.014913702383637428,-0.15322890877723694,0.5339069962501526,7.772775650024414
1713723966745117948,0.05752427875995636,0.00532632227987051,-0.020240023732185364,-0.14724339544773102,0.2669534981250763,8.306682586669922
1713723966754117948,-0.055393751710653305,-0.026631610468029976,-0.029827404767274857,-0.208295539021492,-0.10175357013940811,9.528923034667969
1713723966764117948,-0.16085493564605713,-0.047936901450157166,-0.03195793181657791,-0.152031809091568,-0.1412578970193863,9.919177055358887
1713723966774117948,-0.21411815285682678,-0.04687163606286049,-0.026631610468029976,-0.15801730751991272,-0.026336219161748886,9.309853553771973
1713723966784117948,-0.1619201898574829,-0.041545312851667404,-0.019174760207533836,-0.24420857429504395,-0.16400282084941864,9.534908294677734
1713723966793117948,-0.07350324839353561,-0.04687163606286049,-0.015978965908288956,-0.27413609623908997,-0.5734112858772278,10.838550567626953
1713723966803117948,-0.007456851191818714,-0.034088462591171265,-0.011717909015715122,-0.02513911761343479,-1.2258312702178955,11.978191375732422
1713723966813117948,0.055393751710653305,-0.00532632227987051,-0.017044231295585632,0.3100491166114807,-1.6172832250595093,12.282254219055176
1713723966822117948,0.1022653877735138,0.024501081556081772,-0.02130528911948204,0.32680851221084595,-1.1635819673538208,10.745177268981934
1713723966832117948,0.1203748807311058,0.04048004746437073,-0.014913702383637428,0.03711012750864029,-0.3998316824436188,9.033323287963867
1713723966842117948,0.19174760580062866,0.04580637067556381,-0.013848437927663326,-0.30526071786880493,0.28371289372444153,8.300697326660156
1713723966852117948,0.18429075181484222,0.04687163606286049,-0.008522115647792816,-0.2861070930957794,0.5793967843055725,8.20851993560791
1713723966861117948,0.11930961906909943,0.014913702383637428,-0.009587380103766918,-0.15921440720558167,0.27892449498176575,8.492233276367188
1713723966871117948,-0.011717909015715122,-0.03302319720387459,-0.01810949482023716,-0.09576806426048279,-0.17238251864910126,9.187748908996582
1713723966881117948,-0.1438107043504715,-0.07350324839353561,-0.027696875855326653,-0.028730420395731926,-0.27413609623908997,9.761159896850586
1713723966890117948,-0.22903186082839966,-0.07563377171754837,-0.027696875855326653,-0.020350713282823563,-0.05386953800916672,9.41759204864502
1713723966900117948,-0.222640261054039,-0.047936901450157166,-0.020240023732185364,-0.1412578970193863,0.033518824726343155,9.684545516967773
1713723966910117948,-0.08735168725252151,-0.027696875855326653,-0.015978965908288956,-0.34835633635520935,-0.13407529890537262,9.90361499786377
1713723966919117948,-0.02556634694337845,-0.01810949482023716,-0.01065264455974102,-0.20231004059314728,-0.7936778664588928,10.78468132019043
1713723966929117948,0.030892668291926384,-0.012783173471689224,-0.012783173471689224,0.26815059781074524,-1.7585411071777344,12.526463508605957
1713723966939117948,0.06924218684434891,-0.004261057823896408,-0.02130528911948204,0.4572925269603729,-1.820790410041809,12.217611312866211
1713723966949117948,0.08948221057653427,0.001065264455974102,-0.019174760207533836,0.19393032789230347,-0.9684545993804932,10.284293174743652
1713723966958117948,0.14168016612529755,0.022370552644133568,-0.015978965908288956,-0.33997663855552673,0.004788403399288654,8.924386978149414
1713723966968117948,0.23116238415241241,0.0511326938867569,-0.007456851191818714,-0.34835633635520935,0.7601590156555176,7.724891662597656
1713723966978117948,0.2087918221950531,0.052197955548763275,0.0,-0.047884032130241394,0.872686505317688,7.216123580932617
1713723966988117948,0.10865697264671326,0.015978965908288956,-0.002130528911948204,-0.1867477297782898,0.3734954595565796,8.384493827819824
1713723966997117948,-0.047936901450157166,-0.037284255027770996,-0.011717909015715122,-0.14365209639072418,-0.27413609623908997,9.661800384521484
1713723967007117948,-0.20666129887104034,-0.07776430249214172,-0.022370552644133568,-0.019153613597154617,-0.39384618401527405,9.995792388916016
1713723967017117948,-0.29827404022216797,-0.07563377171754837,-0.020240023732185364,-0.10773907601833344,-0.08499415963888168,9.459490776062012
1713723967026117948,-0.21411815285682678,-0.06817692518234253,-0.013848437927663326,-0.2513911724090576,-0.020350713282823563,9.690530776977539
1713723967036117948,-0.08522115647792816,-0.07030745595693588,-0.011717909015715122,-0.24420857429504395,-0.32441431283950806,10.360907554626465
1713723967046117948,0.006391586735844612,-0.044741105288267136,-0.006391586735844612,0.09217676520347595,-0.9959878921508789,11.650185585021973
1713723967056117948,0.10013485699892044,-0.001065264455974102,-0.013848437927663326,0.4752490222454071,-1.4532804489135742,11.681309700012207
1713723967065117948,0.0511326938867569,0.055393751710653305,-0.015978965908288956,0.4836287498474121,-1.3120225667953491,11.034875869750977
1713723967075117948,0.11078750342130661,0.049002163112163544,-0.020240023732185364,0.20111294090747833,-0.7074865698814392,10.086771965026855
1713723967085117948,0.10759171098470688,0.02556634694337845,-0.01065264455974102,-0.1999158412218094,-0.0454898327589035,8.90882396697998
1713723967094117948,0.19281286001205444,-0.004261057823896408,-0.009587380103766918,-0.22744916379451752,0.45010989904403687,8.196549415588379
1713723967104117948,0.1395496428012848,-0.017044231295585632,-0.004261057823896408,0.020350713282823563,0.5566518902778625,7.904456615447998
1713723967114117948,0.05006742849946022,-0.030892668291926384,-0.008522115647792816,-0.06584054231643677,0.16160860657691956,8.852560997009277
1713723967124117948,-0.07456851005554199,-0.03302319720387459,-0.015978965908288956,-0.020350713282823563,-0.1149216815829277,9.193734169006348
1713723967133117948,-0.19387812912464142,-0.02556634694337845,-0.02130528911948204,0.03711012750864029,-0.12928688526153564,9.434351921081543
1713723967143117948,-0.24501082301139832,-0.008522115647792816,-0.015978965908288956,-0.208295539021492,-0.15682020783424377,9.989806175231934
1713723967153117948,-0.1257012039422989,-0.03621898964047432,-0.01810949482023716,-0.3064578175544739,-0.2693476974964142,10.074800491333008
1713723967162117948,-0.07350324839353561,-0.07350324839353561,-0.013848437927663326,-0.325611412525177,-0.7410054206848145,11.028889656066895
1713723967172117948,0.012783173471689224,-0.07989483326673508,-0.01810949482023716,0.15442600846290588,-1.4664485454559326,12.315773010253906
1713723967181117948,0.047936901450157166,-0.03621898964047432,-0.023435818031430244,0.5937620401382446,-1.3994108438491821,11.349713325500488
1713723967191117948,0.05645901337265968,0.03941478580236435,-0.01810949482023716,0.4010287821292877,-0.667982280254364,9.617507934570312
1713723967201117948,0.10759171098470688,0.0788295716047287,-0.013848437927663326,0.09217676520347595,0.0454898327589035,8.475473403930664
1713723967211117948,0.13528858125209808,0.08096009492874146,0.0,-0.1867477297782898,0.3998316824436188,8.438364028930664
1713723967221117948,0.15659387409687042,0.037284255027770996,-0.002130528911948204,-0.10893617570400238,0.35673603415489197,8.508993148803711
1713723967230117948,0.07137271761894226,-0.023435818031430244,-0.004261057823896408,0.11372458189725876,-0.002394201699644327,8.9064302444458
1713723967240117948,-0.049002163112163544,-0.07989483326673508,-0.017044231295585632,0.07541735470294952,-0.45848962664604187,9.914388656616211
1713723967250117948,-0.17470337450504303,-0.09161274135112762,-0.02876213937997818,-0.061052143573760986,-0.5398924946784973,10.357316017150879
1713723967259117948,-0.21944446861743927,-0.058589544147253036,-0.024501081556081772,-0.1388636976480484,-0.22625206410884857,9.50617790222168
1713723967269117948,-0.12889699637889862,-0.030892668291926384,-0.022370552644133568,-0.26336216926574707,0.05027823522686958,8.969876289367676
1713723967279117948,-0.03515372797846794,-0.01810949482023716,-0.019174760207533836,-0.3363853394985199,-0.16998831927776337,9.859322547912598
1713723967288117948,0.03515372797846794,-0.00532632227987051,-0.013848437927663326,-0.05027823522686958,-0.9385270476341248,11.634622573852539
1713723967298117948,0.06604639440774918,0.007456851191818714,-0.017044231295585632,0.4429273009300232,-1.4832079410552979,11.982979774475098
1713723967308117948,0.03621898964047432,0.014913702383637428,-0.020240023732185364,0.4752490222454071,-1.0977414846420288,10.593145370483398
1713723967318117948,0.05645901337265968,0.004261057823896408,-0.015978965908288956,0.18555063009262085,-0.15562310814857483,8.705317497253418
1713723967327117948,0.09906959533691406,-0.003195793367922306,-0.011717909015715122,-0.033518824726343155,0.50876784324646,7.82185697555542
1713723967337117948,0.12676647305488586,-0.001065264455974102,-0.007456851191818714,-0.12330138683319092,0.5135562419891357,8.5101900100708
1713723967347117948,0.06604639440774918,-0.001065264455974102,-0.003195793367922306,-0.038307227194309235,-0.0347159244120121,9.102754592895508
1713723967357117948,-0.07669904083013535,-0.009587380103766918,-0.011717909015715122,0.09816227108240128,-0.9421183466911316,10.76193618774414
1713723967366117948,-0.19707392156124115,-0.020240023732185364,-0.01810949482023716,0.023942016065120697,-1.3239935636520386,11.616666793823242
1713723967376117948,-0.12463594228029251,-0.06178533658385277,-0.02130528911948204,-0.07661445438861847,-0.6189011335372925,9.842562675476074
1713723967385117948,-0.06285060197114944,-0.07456851005554199,-0.015978965908288956,-0.3603273630142212,0.30286651849746704,8.277952194213867
1713723967395117948,0.1161138266324997,-0.04261057823896408,-0.007456851191818714,-0.2908954918384552,0.41539397835731506,8.74721622467041
1713723967405117948,0.13741911947727203,0.03302319720387459,0.003195793367922306,0.1975216418504715,-0.3543418347835541,10.630255699157715
1713723967415117948,0.07776430249214172,0.08096009492874146,0.00532632227987051,0.34596213698387146,-1.2066776752471924,11.173739433288574
1713723967425117948,-0.07989483326673508,0.07989483326673508,-0.001065264455974102,0.4572925269603729,-1.4317325353622437,11.378443717956543
1713723967434117948,-0.029827404767274857,-0.01065264455974102,-0.015978965908288956,0.386663556098938,-0.652419924736023,9.764751434326172
1713723967444117948,-0.03515372797846794,-0.07776430249214172,-0.017044231295585632,0.05147533491253853,0.2992752194404602,7.943961143493652
1713723967454117948,0.11824434995651245,-0.08948221057653427,-0.02130528911948204,-0.08140285313129425,0.5530605912208557,8.128314971923828
1713723967463117948,0.09054747968912125,-0.029827404767274857,-0.015978965908288956,0.07182604819536209,0.12090718746185303,9.059659004211426
1713723967473117948,0.01065264455974102,0.034088462591171265,-0.013848437927663326,0.10534487664699554,-0.7170634269714355,10.94389533996582
1713723967483117948,-0.12144014239311218,0.0788295716047287,-0.012783173471689224,0.0586579404771328,-1.2258312702178955,11.21563720703125
1713723967492117948,-0.10013485699892044,0.03515372797846794,-0.020240023732185364,-0.10295066982507706,-0.8906430006027222,10.732008934020996
1713723967502117948,-0.027696875855326653,-0.04580637067556381,-0.01810949482023716,-0.47405192255973816,0.11611878126859665,8.53293514251709
1713723967512117948,0.09587380290031433,-0.07776430249214172,-0.007456851191818714,-0.325611412525177,0.5003881454467773,8.323442459106445
1713723967522117948,0.16511598229408264,-0.041545312851667404,-0.003195793367922306,-0.0347159244120121,0.0035913025494664907,9.817423820495605
1713723967531117948,0.06817692518234253,0.02130528911948204,0.00532632227987051,0.05506663769483566,-0.7374141216278076,10.285490036010742
1713723967541117948,-0.10759171098470688,0.06178533658385277,0.001065264455974102,0.395043283700943,-1.455674648284912,11.342530250549316
1713723967551117948,-0.15126754343509674,0.027696875855326653,-0.013848437927663326,0.4129997789859772,-1.2557587623596191,11.510124206542969
1713723967560117948,-0.034088462591171265,-0.06391586363315582,-0.020240023732185364,0.12689268589019775,-0.023942016065120697,8.457517623901367
1713723967570117948,0.029827404767274857,-0.09906959533691406,-0.020240023732185364,0.013168109580874443,0.569819986820221,8.085219383239746
1713723967580117948,0.20666129887104034,-0.07137271761894226,-0.022370552644133568,0.09217676520347595,0.3495534360408783,9.169792175292969
1713723967590117948,0.1161138266324997,0.00532632227987051,-0.01065264455974102,0.2717418968677521,-0.25258827209472656,9.611522674560547
1713723967599117948,-0.02876213937997818,0.06924218684434891,-0.007456851191818714,0.1951274424791336,-1.3108254671096802,11.75672721862793
1713723967609117948,-0.15446333587169647,0.10972223430871964,-0.002130528911948204,-0.06464344263076782,-1.3491326570510864,10.948683738708496
1713723967619117948,-0.07456851005554199,0.047936901450157166,-0.002130528911948204,-0.17477671802043915,-0.29209259152412415,8.926780700683594
1713723967628117948,-0.022370552644133568,-0.02876213937997818,0.001065264455974102,-0.5219359397888184,0.5949591398239136,7.799111843109131
1713723967638117948,0.1342233121395111,-0.058589544147253036,0.006391586735844612,-0.3292027413845062,0.48961424827575684,8.737639427185059
1713723967648117948,0.13209278881549835,-0.037284255027770996,0.008522115647792816,0.208295539021492,-0.38307225704193115,10.723628997802734
1713723967658117948,0.02876213937997818,0.013848437927663326,0.007456851191818714,0.24061726033687592,-1.1408370733261108,11.006145477294922
1713723967667117948,-0.13635385036468506,0.055393751710653305,0.002130528911948204,0.3100491166114807,-1.2234370708465576,10.72722053527832
1713723967677117948,-0.1065264418721199,0.034088462591171265,-0.007456851191818714,0.3208230137825012,-0.545877993106842,9.821015357971191
1713723967687117948,-0.013848437927663326,-0.029827404767274857,-0.01065264455974102,-0.013168109580874443,0.46327802538871765,7.778761386871338
1713723967696117948,0.10439591109752655,-0.052197955548763275,-0.009587380103766918,0.028730420395731926,0.7086836695671082,8.493430137634277
1713723967706117948,0.16937704384326935,-0.026631610468029976,-0.007456851191818714,0.2932896912097931,0.019153613597154617,10.037690162658691
1713723967716117948,0.05752427875995636,0.024501081556081772,-0.004261057823896408,0.21308395266532898,-0.8415618538856506,10.72722053527832
1713723967726117948,-0.11398329585790634,0.06711165606975555,-0.008522115647792816,0.13527239859104156,-1.5298948287963867,11.57596492767334
1713723967735117948,-0.15978966653347015,0.05006742849946022,-0.011717909015715122,0.02753331884741783,-1.238999366760254,11.390414237976074
1713723967745117948,-0.02130528911948204,-0.03834952041506767,-0.013848437927663326,-0.21667525172233582,0.07661445438861847,8.329427719116211
1713723967755117948,0.044741105288267136,-0.07137271761894226,-0.006391586735844612,-0.3447650372982025,0.606930136680603,8.155847549438477
1713723967764117948,0.23329290747642517,-0.052197955548763275,-0.00532632227987051,-0.1412578970193863,0.26575639843940735,9.32661247253418
1713723967774117948,0.11291802674531937,0.02130528911948204,0.007456851191818714,0.11611878126859665,-0.41778817772865295,9.84495735168457
1713723967784117948,-0.04261057823896408,0.07137271761894226,-0.001065264455974102,0.3543418347835541,-1.4413094520568848,11.751938819885254
1713723967793117948,-0.16405072808265686,0.07989483326673508,-0.007456851191818714,0.3387795388698578,-1.3180080652236938,11.252747535705566
1713723967803117948,-0.05432848632335663,-0.006391586735844612,-0.01810949482023716,0.16879121959209442,-0.07422025501728058,8.488641738891602
1713723967813117948,-0.030892668291926384,-0.06924218684434891,-0.019174760207533836,-0.0586579404771328,0.6715735793113708,7.463923454284668
1713723967823117948,0.1715075671672821,-0.0884169489145279,-0.023435818031430244,0.0035913025494664907,0.628477931022644,8.35576343536377
1713723967832117948,0.1022653877735138,-0.02876213937997818,-0.015978965908288956,0.22744916379451752,-0.1388636976480484,10.271124839782715
1713723967842117948,0.002130528911948204,0.03834952041506767,-0.015978965908288956,0.17836801707744598,-1.4856021404266357,12.205639839172363
1713723967852117948,-0.16831177473068237,0.08628641813993454,-0.012783173471689224,0.09457096457481384,-1.844732403755188,11.97220516204834
1713723967861117948,-0.04580637067556381,0.017044231295585632,-0.023435818031430244,-0.011971008032560349,-0.6991068720817566,9.673771858215332
1713723967871117948,0.006391586735844612,-0.049002163112163544,-0.01810949482023716,-0.2992752194404602,0.5147533416748047,7.390900611877441
1713723967881117948,0.22157500684261322,-0.08735168725252151,-0.013848437927663326,-0.06584054231643677,0.6428431272506714,8.814253807067871
1713723967891117948,0.2322276532649994,-0.04687163606286049,-0.009587380103766918,0.20350714027881622,0.1412578970193863,9.886856079101562
1713723967900117948,0.12357067316770554,0.015978965908288956,-0.002130528911948204,-0.10534487664699554,-0.6955155730247498,10.26274585723877
1713723967910117948,-0.08628641813993454,0.06391586363315582,-0.009587380103766918,0.16639702022075653,-1.434126853942871,10.716446876525879
1713723967919117948,-0.23329290747642517,0.07989483326673508,-0.014913702383637428,0.19632454216480255,-1.094150185585022,10.378864288330078
1713723967929117948,-0.09587380290031433,-0.006391586735844612,-0.023435818031430244,-0.017956512048840523,0.16160860657691956,8.633491516113281
1713723967939117948,-0.05006742849946022,-0.06817692518234253,-0.024501081556081772,-0.04189852997660637,0.8283937573432922,7.85537576675415
1713723967949117948,0.15446333587169647,-0.08948221057653427,-0.022370552644133568,-0.07541735470294952,0.4537012279033661,8.937554359436035
1713723967958117948,0.11717908829450607,-0.029827404767274857,-0.012783173471689224,0.1149216815829277,-0.47165772318840027,10.94269847869873
1713723967968117948,0.022370552644133568,0.04367584362626076,-0.00532632227987051,0.15921440720558167,-1.5394716262817383,11.988965034484863
1713723967978117948,-0.14168016612529755,0.1022653877735138,0.002130528911948204,0.0347159244120121,-1.6771382093429565,11.378443717956543
1713723967987117948,-0.030892668291926384,0.037284255027770996,-0.011717909015715122,-0.2454056739807129,-0.7589619159698486,10.401609420776367
1713723967997117948,0.047936901450157166,-0.049002163112163544,-0.014913702383637428,-0.3627215623855591,0.04429272934794426,8.440757751464844
1713723968007117948,0.19813919067382812,-0.11717908829450607,-0.017044231295585632,0.20231004059314728,0.24779987335205078,9.204507827758789
1713723968017117948,0.2780340313911438,-0.1065264418721199,-0.023435818031430244,0.3423708379268646,0.28969839215278625,9.607931137084961
1713723968027117948,0.18855179846286774,-0.03302319720387459,-0.008522115647792816,-0.0454898327589035,0.10055647045373917,8.562862396240234
1713723968036117948,0.026631610468029976,0.02876213937997818,-0.006391586735844612,-0.023942016065120697,-0.3172317147254944,9.466672897338867
1713723968046117948,-0.11930961906909943,0.06072007119655609,-0.008522115647792816,0.043095629662275314,-0.25498247146606445,9.30386734008789
1713723968055117948,-0.22903186082839966,0.09374327212572098,0.001065264455974102,0.07661445438861847,0.013168109580874443,9.226056098937988
1713723968065117948,-0.2034655064344406,0.052197955548763275,-0.003195793367922306,0.15921440720558167,0.0586579404771328,10.217255592346191
1713723968075117948,-0.08735168725252151,-0.02876213937997818,-0.002130528911948204,0.08738835901021957,0.04189852997660637,9.188945770263672
1713723968085117948,-0.07669904083013535,-0.07243797928094864,0.0,-0.061052143573760986,-0.6823474764823914,10.417171478271484
1713723968095117948,0.023435818031430244,-0.05645901337265968,-0.001065264455974102,-0.02513911761343479,-1.4844050407409668,12.00572395324707
1713723968104117948,-0.015978965908288956,0.008522115647792816,0.003195793367922306,-0.026336219161748886,-1.5693992376327515,12.257115364074707
1713723968114117948,0.12250541150569916,0.008522115647792816,-0.00532632227987051,-0.026336219161748886,-1.0247182846069336,11.177330017089844
1713723968124117948,0.15233281254768372,-0.002130528911948204,-0.002130528911948204,0.1496376097202301,-0.30526071786880493,9.14585018157959
1713723968133117948,0.32277512550354004,-0.019174760207533836,-0.011717909015715122,0.22744916379451752,0.39624038338661194,8.0145902633667
1713723968143117948,0.2641855776309967,0.014913702383637428,-0.004261057823896408,0.20111294090747833,0.6979097723960876,7.779958248138428
1713723968153117948,0.1715075671672821,0.030892668291926384,-0.004261057823896408,0.208295539021492,0.4345476031303406,8.468291282653809
1713723968162117948,-0.007456851191818714,0.037284255027770996,-0.008522115647792816,0.1759738177061081,0.20350714027881622,8.396465301513672
1713723968172117948,-0.1896170675754547,0.019174760207533836,-0.012783173471689224,0.1604115068912506,0.028730420395731926,9.077615737915039
1713723968182117948,-0.29933929443359375,0.002130528911948204,-0.013848437927663326,0.15322890877723694,0.0933738648891449,9.162610054016113
1713723968192117948,-0.26631611585617065,-0.04048004746437073,-0.012783173471689224,0.08619125932455063,-0.010773907415568829,9.658209800720215
1713723968201117948,-0.15552860498428345,-0.09587380290031433,-0.012783173471689224,0.04668693244457245,-0.416591078042984,10.530896186828613
1713723968211117948,-0.044741105288267136,-0.06391586363315582,-0.006391586735844612,0.06464344263076782,-1.157596468925476,11.96981143951416
1713723968221117948,0.04048004746437073,0.017044231295585632,-0.007456851191818714,0.08379705995321274,-1.8183962106704712,13.061567306518555
1713723968230117948,0.15872439742088318,0.07350324839353561,-0.01065264455974102,0.023942016065120697,-1.4652514457702637,11.708843231201172
1713723968240117948,0.18855179846286774,0.06072007119655609,-0.006391586735844612,-0.08140285313129425,-0.5159504413604736,9.351751327514648
1713723968250117948,0.2684466242790222,0.022370552644133568,-0.00532632227987051,0.19033902883529663,0.2561795711517334,8.265981674194336
1713723968260117948,0.2652508318424225,-0.00532632227987051,-0.011717909015715122,0.21308395266532898,0.667982280254364,7.999027729034424
1713723968269117948,0.18642127513885498,-0.00532632227987051,-0.004261057823896408,0.05386953800916672,0.6991068720817566,7.412448406219482
1713723968279117948,0.009587380103766918,-0.006391586735844612,-0.01065264455974102,0.19393032789230347,0.32202011346817017,8.197746276855469
1713723968289117948,-0.17896442115306854,-0.001065264455974102,-0.019174760207533836,0.14484919607639313,-0.18076223134994507,9.646238327026367
1713723968298117948,-0.3153182864189148,0.012783173471689224,-0.024501081556081772,0.08379705995321274,-0.22864626348018646,9.928753852844238
1713723968308117948,-0.27164241671562195,-0.019174760207533836,-0.023435818031430244,0.09816227108240128,-0.11133037507534027,10.212467193603516
1713723968318117948,-0.12889699637889862,-0.08735168725252151,-0.023435818031430244,0.035913024097681046,-0.08259996026754379,9.692925453186035
1713723968327117948,-0.03515372797846794,-0.07563377171754837,-0.02130528911948204,0.10654197633266449,-0.42018237709999084,10.475829124450684
1713723968337117948,0.10013485699892044,0.001065264455974102,-0.014913702383637428,0.014365210197865963,-1.0079588890075684,11.525687217712402
1713723968347117948,0.04048004746437073,0.1065264418721199,0.001065264455974102,-0.30047231912612915,-1.3251906633377075,11.36048698425293
1713723968357117948,0.092678003013134,0.11398329585790634,0.002130528911948204,-0.2454056739807129,-1.1887211799621582,11.622652053833008
1713723968366117948,0.1395496428012848,0.03834952041506767,0.003195793367922306,-0.28131869435310364,-0.4836287498474121,9.288305282592773
1713723968376117948,0.1896170675754547,-0.02876213937997818,0.015978965908288956,-0.21667525172233582,0.16998831927776337,8.537723541259766
1713723968386117948,0.23968449234962463,-0.05645901337265968,0.015978965908288956,-0.14365209639072418,0.5746083855628967,8.481459617614746
1713723968395117948,0.14700649678707123,-0.03515372797846794,0.029827404767274857,-0.2992752194404602,0.6404489278793335,7.68658447265625
1713723968405117948,0.0,0.0,0.03302319720387459,-0.35913026332855225,0.2537853717803955,9.032125473022461
1713723968415117948,-0.1342233121395111,0.03302319720387459,0.03941478580236435,-0.333991140127182,0.011971008032560349,9.427168846130371
1713723968425117948,-0.24820661544799805,0.0649811327457428,0.044741105288267136,-0.26815059781074524,-0.03711012750864029,9.439140319824219
1713723968434431894,-0.23542344570159912,0.041545312851667404,0.041545312851667404,-0.1628057062625885,-0.19273322820663452,10.516530990600586
1713723968444431894,-0.10546118021011353,-0.03834952041506767,0.03834952041506767,-0.021547814831137657,-0.22744916379451752,9.5995512008667
1713723968453431894,-0.09480853378772736,-0.08096009492874146,0.044741105288267136,-0.13168108463287354,-0.7924807667732239,10.755950927734375
1713723968463431894,0.03941478580236435,-0.05326322093605995,0.049002163112163544,-0.16879121959209442,-1.4496891498565674,12.107478141784668
1713723968473431894,-0.012783173471689224,0.03302319720387459,0.05965480953454971,0.005985504016280174,-1.4652514457702637,11.598710060119629
1713723968483431894,0.12250541150569916,0.04687163606286049,0.05006742849946022,0.08379705995321274,-0.9504980444908142,10.745177268981934
1713723968492431894,0.1438107043504715,0.03515372797846794,0.05645901337265968,0.1173158809542656,-0.20111294090747833,8.955511093139648
1713723968502431894,0.29401299357414246,0.0,0.05006742849946022,0.04908113554120064,0.43933600187301636,8.02656078338623
1713723968512431894,0.22583605349063873,0.012783173471689224,0.055393751710653305,-0.07541735470294952,0.5865793824195862,8.148665428161621
1713723968521431894,0.12357067316770554,0.023435818031430244,0.055393751710653305,-0.1364694982767105,0.24420857429504395,8.773551940917969
1713723968531431894,-0.0649811327457428,0.027696875855326653,0.05326322093605995,-0.21308395266532898,-0.008379706181585789,8.99621295928955
1713723968541431894,-0.22477079927921295,0.01810949482023716,0.05326322093605995,-0.13766659796237946,-0.10175357013940811,9.670180320739746
1713723968551431894,-0.28975191712379456,-0.003195793367922306,0.05752427875995636,0.015562310814857483,-0.07541735470294952,9.787496566772461
1713723968560431894,-0.16937704384326935,-0.06817692518234253,0.05432848632335663,-0.008379706181585789,0.013168109580874443,9.065644264221191
1713723968570431894,-0.13848437368869781,-0.08522115647792816,0.06178533658385277,-0.09457096457481384,-0.15322890877723694,9.605537414550781
1713723968580431894,0.01065264455974102,-0.041545312851667404,0.06711165606975555,-0.014365210197865963,-0.6967126727104187,11.116278648376465
1713723968590431894,-0.017044231295585632,0.0649811327457428,0.08309062570333481,0.021547814831137657,-1.4425065517425537,12.267889022827148
1713723968599431894,0.08202536404132843,0.09374327212572098,0.07669904083013535,-0.05147533491253853,-1.6340426206588745,12.559982299804688
1713723968609431894,0.13848437368869781,0.037284255027770996,0.07563377171754837,-0.3363853394985199,-0.9014168977737427,10.047266960144043
1713723968619431894,0.20559602975845337,-0.019174760207533836,0.07989483326673508,-0.15682020783424377,-0.23702596127986908,8.992621421813965
1713723968628431894,0.28442561626434326,-0.03515372797846794,0.07669904083013535,-0.11611878126859665,0.4537012279033661,8.376114845275879
1713723968638431894,0.20240023732185364,0.0,0.09693906456232071,-0.5770025849342346,0.8571242094039917,7.3418192863464355
1713723968648431894,0.044741105288267136,0.03302319720387459,0.10333064943552017,-0.6967126727104187,0.5410895943641663,8.300697326660156
1713723968658431894,-0.12250541150569916,0.047936901450157166,0.11504855751991272,-0.7158662676811218,0.14006079733371735,9.209296226501465
1713723968667431894,-0.2727077007293701,0.04580637067556381,0.12676647305488586,-0.689530074596405,0.06224924325942993,9.745597839355469
1713723968677431894,-0.28549087047576904,0.009587380103766918,0.1395496428012848,-0.3974374830722809,-0.04189852997660637,10.688913345336914
1713723968687431894,-0.15233281254768372,-0.07776430249214172,0.13741911947727203,-0.15682020783424377,-0.061052143573760986,9.108739852905273
1713723968697431894,-0.11824434995651245,-0.10120011866092682,0.14168016612529755,-0.2298433631658554,-0.30526071786880493,9.320627212524414
1713723968706431894,0.044741105288267136,-0.049002163112163544,0.14594122767448425,-0.06344634294509888,-0.727837324142456,10.766724586486816
1713723968716431894,-0.017044231295585632,0.06391586363315582,0.16085493564605713,0.05147533491253853,-1.2964601516723633,11.316194534301758
1713723968726431894,-0.002130528911948204,0.12144014239311218,0.15978966653347015,0.03232172131538391,-1.7776947021484375,13.239934921264648
1713723968735431894,0.1203748807311058,0.05752427875995636,0.15233281254768372,-0.1604115068912506,-1.235408067703247,10.955866813659668
1713723968745431894,0.12889699637889862,-0.003195793367922306,0.16085493564605713,-0.3016694188117981,-0.5027823448181152,9.069235801696777
1713723968755431894,0.29933929443359375,-0.047936901450157166,0.15126754343509674,-0.16519992053508759,0.35913026332855225,7.523778915405273
1713723968764431894,0.18642127513885498,-0.017044231295585632,0.16618125140666962,-0.18914192914962769,0.5638344883918762,7.46152925491333
1713723968774431894,0.07350324839353561,-0.002130528911948204,0.1619201898574829,-0.2190694510936737,0.24779987335205078,8.916007041931152
1713723968784431894,-0.0788295716047287,0.037284255027770996,0.16405072808265686,-0.09935937076807022,-0.02274491637945175,9.119514465332031
1713723968793431894,-0.23009711503982544,0.04687163606286049,0.16405072808265686,-0.038307227194309235,-0.34835633635520935,9.897629737854004
1713723968803431894,-0.3142530024051666,0.05432848632335663,0.1715075671672821,-0.04668693244457245,-0.4189852774143219,10.439916610717773
1713723968813431894,-0.148071750998497,-0.02556634694337845,0.15978966653347015,0.043095629662275314,-0.17836801707744598,9.45111083984375
1713723968823431894,-0.10546118021011353,-0.06711165606975555,0.16405072808265686,-0.10534487664699554,0.11013327538967133,8.75080680847168
1713723968832431894,0.10759171098470688,-0.058589544147253036,0.1619201898574829,-0.17477671802043915,-0.016759412363171577,9.719261169433594
1713723968842431894,0.07776430249214172,0.03834952041506767,0.1768338978290558,-0.008379706181585789,-0.7146691679954529,11.130643844604492
1713723968852431894,0.008522115647792816,0.11824434995651245,0.18216021358966827,-0.09457096457481384,-1.6304513216018677,12.112266540527344
1713723968861431894,-0.06072007119655609,0.12250541150569916,0.17789916694164276,0.152031809091568,-1.7980453968048096,12.610260009765625
1713723968871431894,0.04580637067556381,0.011717909015715122,0.1533980816602707,0.13287819921970367,-1.0905588865280151,10.305841445922852
1713723968881431894,0.06178533658385277,-0.07776430249214172,0.15659387409687042,-0.24420857429504395,-0.24420857429504395,8.315062522888184
1713723968891431894,0.25779399275779724,-0.1022653877735138,0.15233281254768372,-0.3711012601852417,0.48482584953308105,8.148665428161621
1713723968900431894,0.2045307755470276,-0.03941478580236435,0.16831177473068237,-0.5793967843055725,0.9097966551780701,7.556100368499756
1713723968910431894,0.11930961906909943,0.034088462591171265,0.18429075181484222,-0.3998316824436188,0.5793967843055725,8.700529098510742
1713723968920431894,-0.04687163606286049,0.06711165606975555,0.18429075181484222,-0.1280897855758667,-0.18315643072128296,9.707290649414062
1713723968929431894,-0.22157500684261322,0.08096009492874146,0.18216021358966827,-0.009576806798577309,-0.711077868938446,10.047266960144043
1713723968939431894,-0.34514567255973816,0.07030745595693588,0.18216021358966827,0.02992752008140087,-0.7445967197418213,10.911574363708496
1713723968949431894,-0.1619201898574829,-0.03515372797846794,0.1715075671672821,-0.04668693244457245,-0.24061726033687592,9.616311073303223
1713723968959431894,-0.11930961906909943,-0.09906959533691406,0.1757686287164688,-0.34835633635520935,0.07062894850969315,8.339004516601562
1713723968968431894,0.10013485699892044,-0.10439591109752655,0.17257283627986908,-0.1999158412218094,-0.28730419278144836,10.371681213378906
1713723968978431894,0.09480853378772736,-0.004261057823896408,0.18216021358966827,0.30885201692581177,-0.9133879542350769,11.409567832946777
1713723968987431894,0.03834952041506767,0.09374327212572098,0.18002969026565552,0.17956513166427612,-1.260547161102295,10.952275276184082
1713723968997431894,-0.05432848632335663,0.15446333587169647,0.18429075181484222,0.1628057062625885,-1.0761936902999878,10.639832496643066
1713723969007431894,0.022370552644133568,0.08415588736534119,0.1619201898574829,0.208295539021492,-0.5123591423034668,9.186552047729492
1713723969017431894,0.013848437927663326,0.001065264455974102,0.16405072808265686,-0.21787235140800476,0.011971008032560349,8.255207061767578
1713723969026431894,0.11504855751991272,-0.05006742849946022,0.16298545897006989,-0.4620809257030487,0.06464344263076782,9.184157371520996
1713723969036431894,0.06072007119655609,-0.03941478580236435,0.1672465205192566,-0.1304839849472046,-0.19871874153614044,9.888052940368652
1713723969046431894,-0.012783173471689224,-0.006391586735844612,0.16405072808265686,0.09816227108240128,-0.5147533416748047,9.93833065032959
1713723969056431894,-0.12250541150569916,0.03302319720387459,0.1619201898574829,0.1280897855758667,-0.5710170865058899,9.549273490905762
1713723969065431894,-0.14594122767448425,0.04367584362626076,0.1533980816602707,0.24061726033687592,-0.5925649404525757,10.656591415405273
1713723969075431894,-0.03515372797846794,-0.008522115647792816,0.14274543523788452,0.21308395266532898,-0.2190694510936737,9.45111083984375
1713723969085431894,-0.01810949482023716,-0.041545312851667404,0.13741911947727203,0.17836801707744598,-0.043095629662275314,9.084797859191895
1713723969095431894,0.10972223430871964,-0.044741105288267136,0.12676647305488586,0.2885012924671173,-0.11013327538967133,9.260771751403809
1713723969104431894,0.03834952041506767,0.01065264455974102,0.12783172726631165,0.46327802538871765,-0.33997663855552673,9.445125579833984
1713723969114431894,-0.05006742849946022,0.06072007119655609,0.12463594228029251,0.42018237709999084,-1.0558428764343262,11.221623420715332
1713723969124431894,-0.13209278881549835,0.07137271761894226,0.11824434995651245,0.5267243385314941,-1.6531962156295776,12.260706901550293
1713723969133431894,-0.013848437927663326,-0.01810949482023716,0.09693906456232071,0.6189011335372925,-1.3251906633377075,10.96664047241211
1713723969143431894,-0.011717909015715122,-0.08948221057653427,0.08202536404132843,0.4010287821292877,-0.4513069987297058,8.99621295928955
1713723969153431894,0.20240023732185364,-0.09374327212572098,0.06391586363315582,0.16160860657691956,0.28131869435310364,8.305485725402832
1713723969162431894,0.19813919067382812,-0.011717909015715122,0.06604639440774918,0.1735796183347702,0.4321534037590027,8.441954612731934
1713723969172431894,0.148071750998497,0.05645901337265968,0.058589544147253036,0.38307225704193115,-0.08978256583213806,9.422380447387695
1713723969182431894,0.003195793367922306,0.08948221057653427,0.047936901450157166,0.5327098965644836,-0.5865793824195862,9.677363395690918
1713723969192431894,-0.15659387409687042,0.08309062570333481,0.03515372797846794,0.5303156971931458,-0.7673416137695312,10.336965560913086
1713723969201431894,-0.2183792144060135,0.029827404767274857,0.027696875855326653,0.4321534037590027,-0.4345476031303406,10.0580415725708
1713723969211431894,-0.12463594228029251,-0.0511326938867569,0.02130528911948204,0.18076223134994507,0.19273322820663452,8.245630264282227
1713723969221431894,-0.09374327212572098,-0.07669904083013535,0.026631610468029976,-0.09935937076807022,0.32680851221084595,8.458714485168457
1713723969230431894,0.04261057823896408,-0.041545312851667404,0.030892668291926384,-0.09576806426048279,-0.02513911761343479,9.621099472045898
1713723969240431894,-0.003195793367922306,0.04687163606286049,0.037284255027770996,0.021547814831137657,-0.8032546639442444,11.243170738220215
1713723969250431894,-0.055393751710653305,0.08948221057653427,0.030892668291926384,0.36990416049957275,-2.053027868270874,13.61223316192627
1713723969260431894,0.03834952041506767,0.014913702383637428,0.008522115647792816,0.3734954595565796,-1.8543092012405396,11.741165161132812
1713723969269431894,0.02876213937997818,-0.05006742849946022,0.004261057823896408,0.11971008032560349,-0.5985504388809204,9.190142631530762
1713723969279431894,0.23542344570159912,-0.06391586363315582,-0.004261057823896408,-0.017956512048840523,0.48722004890441895,7.799111843109131
1713723969289431894,0.23435817658901215,0.007456851191818714,0.009587380103766918,-0.0694318488240242,0.8367734551429749,7.620743751525879
1713723969298431894,0.1810949593782425,0.06178533658385277,0.011717909015715122,0.1604115068912506,0.325611412525177,8.655038833618164
1713723969308431894,-0.001065264455974102,0.07456851005554199,0.0,0.43933600187301636,-0.4106055796146393,9.651026725769043
1713723969318431894,-0.1949433982372284,0.0511326938867569,-0.020240023732185364,0.5303156971931458,-1.0773907899856567,10.63743782043457
1713723969327431894,-0.31318774819374084,0.013848437927663326,-0.030892668291926384,0.38546645641326904,-0.9133879542350769,10.860098838806152
1713723969337431894,-0.16298545897006989,-0.07456851005554199,-0.041545312851667404,0.14724339544773102,-0.10773907601833344,9.015366554260254
1713723969347431894,-0.08522115647792816,-0.08309062570333481,-0.03195793181657791,-0.15562310814857483,0.26575639843940735,8.412027359008789
1713723969357431894,0.12783172726631165,-0.029827404767274857,-0.029827404767274857,-0.15083470940589905,0.11252747476100922,9.804255485534668
1713723969366431894,0.15552860498428345,0.06924218684434891,-0.022370552644133568,0.24061726033687592,-0.39624038338661194,10.541669845581055
1713723969376431894,0.06072007119655609,0.11930961906909943,-0.027696875855326653,0.42616790533065796,-1.381454348564148,11.456254959106445
1713723969386431894,-0.06817692518234253,0.1022653877735138,-0.03941478580236435,0.43095630407333374,-1.7489643096923828,12.36605167388916
1713723969396431894,-0.006391586735844612,-0.001065264455974102,-0.05645901337265968,0.12210428714752197,-1.0079588890075684,10.32978343963623
1713723969405431894,-0.015978965908288956,-0.07030745595693588,-0.047936901450157166,-0.27653029561042786,-0.20231004059314728,8.276755332946777
1713723969415431894,0.14700649678707123,-0.07137271761894226,-0.047936901450157166,-0.264559268951416,0.36152446269989014,8.107963562011719
1713723969425431894,0.13315805792808533,0.007456851191818714,-0.03621898964047432,-0.021547814831137657,0.4513069987297058,8.395268440246582
1713723969434431894,0.10013485699892044,0.06711165606975555,-0.034088462591171265,0.09217676520347595,0.03232172131538391,9.300276756286621
1713723969444431894,-0.012783173471689224,0.09587380290031433,-0.037284255027770996,0.061052143573760986,-0.38067805767059326,9.423577308654785
1713723969454431894,-0.13635385036468506,0.07669904083013535,-0.04580637067556381,-0.020350713282823563,-0.6380547285079956,10.396821022033691
1713723969463431894,-0.10546118021011353,-0.01065264455974102,-0.05006742849946022,-0.19871874153614044,-0.3818751573562622,10.019734382629395
1713723969473431894,-0.10333064943552017,-0.08309062570333481,-0.047936901450157166,-0.395043283700943,-0.009576806798577309,9.168595314025879
1713723969483431894,0.002130528911948204,-0.09480853378772736,-0.047936901450157166,-0.24420857429504395,-0.0071826050989329815,9.38167953491211
1713723969493431894,0.02130528911948204,-0.034088462591171265,-0.04367584362626076,0.1280897855758667,-0.49320554733276367,10.339360237121582
1713723969502431894,-0.004261057823896408,0.041545312851667404,-0.04580637067556381,0.272938996553421,-1.116895079612732,10.811017990112305
1713723969512431894,-0.037284255027770996,0.07137271761894226,-0.0511326938867569,0.3196259140968323,-1.4772224426269531,11.660959243774414
1713723969522431894,0.055393751710653305,0.015978965908288956,-0.055393751710653305,0.22505494952201843,-1.1623848676681519,11.061211585998535
1713723969532431894,0.07456851005554199,-0.017044231295585632,-0.05006742849946022,-0.0454898327589035,-0.4967968463897705,9.81383228302002
1713723969541431894,0.2364886999130249,-0.009587380103766918,-0.0511326938867569,-0.20470423996448517,0.2346317619085312,8.432377815246582
1713723969551431894,0.1949433982372284,0.04687163606286049,-0.03941478580236435,-0.014365210197865963,0.5650315880775452,7.577648162841797
1713723969561431894,0.10972223430871964,0.07350324839353561,-0.04048004746437073,0.08140285313129425,0.1388636976480484,8.936357498168945
1713723969570431894,-0.01065264455974102,0.0649811327457428,-0.047936901450157166,0.07422025501728058,-0.29209259152412415,9.258378028869629
1713723969580431894,-0.15552860498428345,0.03195793181657791,-0.05326322093605995,0.10295066982507706,-0.47644612193107605,9.684545516967773
1713723969589431894,-0.2183792144060135,-0.013848437927663326,-0.05645901337265968,-0.05746084079146385,-0.456095427274704,10.562020301818848
1713723969599431894,-0.1203748807311058,-0.06711165606975555,-0.055393751710653305,-0.4141968786716461,-0.12090718746185303,9.767146110534668
1713723969609431894,-0.06817692518234253,-0.06711165606975555,-0.05326322093605995,-0.50876784324646,0.033518824726343155,9.509769439697266
1713723969619431894,0.07776430249214172,-0.027696875855326653,-0.055393751710653305,-0.02274491637945175,-0.3447650372982025,10.160991668701172
1713723969628431894,0.05006742849946022,0.041545312851667404,-0.058589544147253036,0.4620809257030487,-0.9684545993804932,10.645817756652832
1713723969638431894,0.01810949482023716,0.06817692518234253,-0.07030745595693588,0.35075053572654724,-1.3539210557937622,11.502942085266113
1713723969648431894,0.05645901337265968,0.03834952041506767,-0.07350324839353561,0.02513911761343479,-0.9085995554924011,10.42076301574707
1713723969658431894,0.03941478580236435,-0.003195793367922306,-0.06924218684434891,-0.22026655077934265,-0.2861070930957794,9.253589630126953
1713723969667431894,0.1342233121395111,-0.022370552644133568,-0.06817692518234253,-0.2908954918384552,0.16160860657691956,8.44434928894043
1713723969677431894,0.10439591109752655,0.0,-0.05752427875995636,0.038307227194309235,0.304063618183136,8.485051155090332
1713723969687431894,0.06924218684434891,0.015978965908288956,-0.05752427875995636,0.07062894850969315,0.11971008032560349,8.937554359436035
1713723969697431894,-0.02876213937997818,0.029827404767274857,-0.05645901337265968,-0.12210428714752197,-0.1735796183347702,9.199719429016113
1713723969706431894,-0.12357067316770554,0.02556634694337845,-0.06178533658385277,-0.06464344263076782,-0.31124621629714966,9.84615421295166
1713723969716431894,-0.15446333587169647,0.004261057823896408,-0.05965480953454971,-0.1388636976480484,-0.23702596127986908,10.091560363769531
1713723969726431894,-0.08735168725252151,-0.03515372797846794,-0.06072007119655609,-0.3603273630142212,-0.10295066982507706,9.487024307250977
1713723969735431894,-0.06711165606975555,-0.04687163606286049,-0.058589544147253036,-0.33279404044151306,-0.3016694188117981,9.800664901733398
1713723969745431894,0.004261057823896408,-0.026631610468029976,-0.058589544147253036,-0.0454898327589035,-0.9014168977737427,10.995370864868164
1713723969755431894,-0.007456851191818714,0.012783173471689224,-0.058589544147253036,0.25737667083740234,-1.4544775485992432,11.719616889953613
1713723969764431894,0.05432848632335663,0.012783173471689224,-0.06391586363315582,0.2322375625371933,-1.3084311485290527,11.159374237060547
