t,gx,gy,gz,ax,ay,az
1713723961475432981,-0.002130528911948204,0.001065264455974102,-0.01065264455974102,-0.04668693244457245,-0.295683890581131,9.84376049041748
1713723961484432981,-0.001065264455974102,0.0,-0.01065264455974102,-0.0454898327589035,-0.2932896912097931,9.84615421295166
1713723961494432981,-0.002130528911948204,0.0,-0.01065264455974102,-0.03950432687997818,-0.29209259152412415,9.840168952941895
1713723961504432981,-0.002130528911948204,0.001065264455974102,-0.01065264455974102,-0.038307227194309235,-0.2968810200691223,9.836577415466309
1713723961513432981,-0.002130528911948204,0.0,-0.01065264455974102,-0.04908113554120064,-0.30047231912612915,9.836577415466309
1713723961523432981,-0.001065264455974102,0.0,-0.01065264455974102,-0.05147533491253853,-0.2908954918384552,9.837774276733398
1713723961532432981,-0.002130528911948204,0.0,-0.01065264455974102,-0.05267243832349777,-0.28730419278144836,9.84376049041748
1713723961542432981,-0.001065264455974102,0.0,-0.011717909015715122,-0.04908113554120064,-0.2968810200691223,9.841365814208984
1713723961552432981,-0.003195793367922306,0.001065264455974102,-0.01065264455974102,-0.04908113554120064,-0.29448679089546204,9.834183692932129
1713723961561432981,-0.003195793367922306,0.0,-0.01065264455974102,-0.04908113554120064,-0.28371289372444153,9.838972091674805
1713723961571432981,-0.002130528911948204,0.0,-0.01065264455974102,-0.0454898327589035,-0.2849099934101105,9.84376049041748
1713723961580432981,-0.002130528911948204,0.0,-0.01065264455974102,-0.04668693244457245,-0.2992752194404602,9.842562675476074
1713723961590432981,-0.002130528911948204,0.001065264455974102,-0.009587380103766918,-0.04668693244457245,-0.30286651849746704,9.838972091674805
1713723961599432981,-0.002130528911948204,0.001065264455974102,-0.01065264455974102,-0.04429272934794426,-0.29209259152412415,9.836577415466309
1713723961609432981,-0.002130528911948204,0.001065264455974102,-0.01065264455974102,-0.04668693244457245,-0.29448679089546204,9.838972091674805
1713723961619432981,-0.002130528911948204,0.001065264455974102,-0.011717909015715122,-0.04908113554120064,-0.295683890581131,9.841365814208984
1713723961628432981,-0.002130528911948204,0.001065264455974102,-0.01065264455974102,-0.0454898327589035,-0.2932896912097931,9.840168952941895
1713723961638432981,-0.002130528911948204,0.0,-0.01065264455974102,-0.0454898327589035,-0.29448679089546204,9.84615421295166
1713723961647432981,-0.002130528911948204,0.0,-0.011717909015715122,-0.05147533491253853,-0.2932896912097931,9.84615421295166
1713723961657432981,-0.002130528911948204,0.0,-0.01065264455974102,-0.05267243832349777,-0.2908954918384552,9.838972091674805
1713723961666432981,-0.002130528911948204,0.0,-0.01065264455974102,-0.047884032130241394,-0.295683890581131,9.836577415466309
1713723961677432981,-0.003195793367922306,0.001065264455974102,-0.01065264455974102,-0.04668693244457245,-0.2968810200691223,9.838972091674805
1713723961686432981,-0.002130528911948204,0.0,-0.011717909015715122,-0.0454898327589035,-0.29807811975479126,9.838972091674805
1713723961695432981,-0.002130528911948204,0.001065264455974102,-0.01065264455974102,-0.04429272934794426,-0.2968810200691223,9.835380554199219
1713723961705432981,-0.001065264455974102,0.0,-0.01065264455974102,-0.04429272934794426,-0.2908954918384552,9.836577415466309
1713723961714432981,-0.002130528911948204,0.0,-0.01065264455974102,-0.04429272934794426,-0.295683890581131,9.831789016723633
1713723961724432981,-0.003195793367922306,0.0,-0.01065264455974102,-0.04908113554120064,-0.29807811975479126,9.830592155456543
1713723961734432981,-0.002130528911948204,0.0,-0.01065264455974102,-0.05386953800916672,-0.295683890581131,9.840168952941895
1713723961743432981,-0.002130528911948204,0.0,-0.01065264455974102,-0.043095629662275314,-0.295683890581131,9.84615421295166
1713723961753432981,-0.002130528911948204,0.0,-0.01065264455974102,-0.03711012750864029,-0.30526071786880493,9.842562675476074
1713723961762432981,-0.002130528911948204,0.0,-0.01065264455974102,-0.04189852997660637,-0.30885201692581177,9.836577415466309
1713723961772432981,-0.002130528911948204,0.0,-0.01065264455974102,-0.040701426565647125,-0.2992752194404602,9.84376049041748
1713723961782432981,-0.002130528911948204,0.0,-0.01065264455974102,-0.035913024097681046,-0.28969839215278625,9.848548889160156
1713723961791432981,-0.002130528911948204,0.001065264455974102,-0.01065264455974102,-0.040701426565647125,-0.2849099934101105,9.840168952941895
1713723961801432981,-0.002130528911948204,0.001065264455974102,-0.01065264455974102,-0.043095629662275314,-0.2885012924671173,9.834183692932129
1713723961810432981,-0.002130528911948204,0.001065264455974102,-0.01065264455974102,-0.043095629662275314,-0.2932896912097931,9.836577415466309
1713723961820432981,-0.003195793367922306,0.001065264455974102,-0.01065264455974102,-0.04429272934794426,-0.2992752194404602,9.841365814208984
1713723961829432981,-0.002130528911948204,0.001065264455974102,-0.01065264455974102,-0.04429272934794426,-0.29807811975479126,9.84376049041748
1713723961839432981,-0.002130528911948204,0.001065264455974102,-0.01065264455974102,-0.04429272934794426,-0.2885012924671173,9.84495735168457
1713723961848432981,-0.002130528911948204,0.001065264455974102,-0.01065264455974102,-0.040701426565647125,-0.2932896912097931,9.84376049041748
1713723961858432981,-0.002130528911948204,0.001065264455974102,-0.01065264455974102,-0.040701426565647125,-0.2968810200691223,9.84615421295166
1713723961868432981,-0.002130528911948204,0.0,-0.01065264455974102,-0.0454898327589035,-0.29209259152412415,9.84615421295166
1713723961877432981,-0.002130528911948204,0.0,-0.01065264455974102,-0.047884032130241394,-0.2932896912097931,9.840168952941895
1713723961887432981,-0.002130528911948204,0.0,-0.01065264455974102,-0.04908113554120064,-0.29209259152412415,9.84376049041748
1713723961897432981,-0.002130528911948204,0.001065264455974102,-0.01065264455974102,-0.043095629662275314,-0.29448679089546204,9.84376049041748
1713723961906432981,-0.002130528911948204,0.001065264455974102,-0.01065264455974102,-0.043095629662275314,-0.30047231912612915,9.84376049041748
1713723961916432981,-0.002130528911948204,0.0,-0.01065264455974102,-0.047884032130241394,-0.2992752194404602,9.841365814208984
1713723961926432981,-0.002130528911948204,0.0,-0.01065264455974102,-0.040701426565647125,-0.295683890581131,9.838972091674805
1713723961935432981,-0.002130528911948204,0.001065264455974102,-0.009587380103766918,-0.04908113554120064,-0.2968810200691223,9.84376049041748
1713723961944432981,-0.002130528911948204,0.001065264455974102,-0.01065264455974102,-0.05626373738050461,-0.295683890581131,9.842562675476074
1713723961954432981,-0.002130528911948204,0.0,-0.01065264455974102,-0.04908113554120064,-0.29448679089546204,9.835380554199219
1713723961964432981,-0.002130528911948204,0.0,-0.01065264455974102,-0.03950432687997818,-0.29209259152412415,9.834183692932129
1713723961973432981,-0.002130528911948204,0.0,-0.01065264455974102,-0.03950432687997818,-0.28730419278144836,9.841365814208984
1713723961982432981,-0.002130528911948204,0.0,-0.01065264455974102,-0.05027823522686958,-0.2861070930957794,9.84615421295166
1713723961993432981,-0.002130528911948204,0.0,-0.01065264455974102,-0.04908113554120064,-0.2885012924671173,9.841365814208984
1713723962002432981,-0.002130528911948204,0.0,-0.01065264455974102,-0.0454898327589035,-0.2908954918384552,9.836577415466309
1713723962011432981,-0.002130528911948204,0.001065264455974102,-0.011717909015715122,-0.04908113554120064,-0.28969839215278625,9.832985877990723
1713723962021432981,-0.002130528911948204,0.001065264455974102,-0.01065264455974102,-0.05267243832349777,-0.2908954918384552,9.837774276733398
1713723962030432981,-0.002130528911948204,0.001065264455974102,-0.01065264455974102,-0.04908113554120064,-0.2932896912097931,9.842562675476074
1713723962041432981,-0.001065264455974102,0.0,-0.01065264455974102,-0.0454898327589035,-0.29209259152412415,9.842562675476074
1713723962050432981,-0.002130528911948204,0.0,-0.01065264455974102,-0.05267243832349777,-0.29209259152412415,9.84376049041748
1713723962059432981,-0.002130528911948204,0.0,-0.009587380103766918,-0.04668693244457245,-0.29209259152412415,9.84615421295166
1713723962069432981,-0.002130528911948204,0.0,-0.009587380103766918,-0.040701426565647125,-0.2861070930957794,9.84376049041748
1713723962079432981,-0.002130528911948204,0.0,-0.011717909015715122,-0.043095629662275314,-0.2885012924671173,9.835380554199219
1713723962088432981,-0.002130528911948204,0.0,-0.01065264455974102,-0.0454898327589035,-0.28969839215278625,9.840168952941895
1713723962098432981,-0.002130528911948204,0.0,-0.01065264455974102,-0.04908113554120064,-0.295683890581131,9.837774276733398
1713723962108432981,-0.002130528911948204,0.0,-0.01065264455974102,-0.043095629662275314,-0.29807811975479126,9.835380554199219
1713723962117432981,-0.002130528911948204,0.001065264455974102,-0.01065264455974102,-0.03950432687997818,-0.295683890581131,9.840168952941895
1713723962126432981,-0.002130528911948204,0.0,-0.01065264455974102,-0.04429272934794426,-0.30047231912612915,9.832985877990723
1713723962136432981,-0.002130528911948204,0.001065264455974102,-0.01065264455974102,-0.04908113554120064,-0.295683890581131,9.837774276733398
1713723962146432981,-0.002130528911948204,0.0,-0.009587380103766918,-0.040701426565647125,-0.2932896912097931,9.84735107421875
1713723962155432981,-0.002130528911948204,0.001065264455974102,-0.01065264455974102,-0.0347159244120121,-0.29209259152412415,9.838972091674805
1713723962165432981,-0.002130528911948204,0.0,-0.01065264455974102,-0.03950432687997818,-0.295683890581131,9.834183692932129
1713723962174432981,-0.002130528911948204,0.0,-0.01065264455974102,-0.03950432687997818,-0.304063618183136,9.837774276733398
1713723962184432981,-0.003195793367922306,0.0,-0.01065264455974102,-0.04189852997660637,-0.295683890581131,9.84376049041748
1713723962193432981,-0.001065264455974102,0.0,-0.01065264455974102,-0.043095629662275314,-0.2885012924671173,9.835380554199219
1713723962203432981,-0.002130528911948204,0.0,-0.01065264455974102,-0.04668693244457245,-0.28969839215278625,9.831789016723633
1713723962213432981,-0.002130528911948204,0.0,-0.01065264455974102,-0.04908113554120064,-0.2885012924671173,9.836577415466309
1713723962222432981,-0.003195793367922306,0.001065264455974102,-0.01065264455974102,-0.04668693244457245,-0.2968810200691223,9.84376049041748
1713723962233432981,-0.002130528911948204,0.001065264455974102,-0.01065264455974102,-0.05147533491253853,-0.30047231912612915,9.84376049041748
1713723962241432981,-0.002130528911948204,0.0,-0.01065264455974102,-0.05386953800916672,-0.29448679089546204,9.831789016723633
1713723962251432981,-0.002130528911948204,0.0,-0.01065264455974102,-0.05147533491253853,-0.29209259152412415,9.834183692932129
1713723962261432981,-0.001065264455974102,0.0,-0.01065264455974102,-0.04429272934794426,-0.29209259152412415,9.84495735168457
1713723962270432981,-0.003195793367922306,0.001065264455974102,-0.01065264455974102,-0.04429272934794426,-0.30047231912612915,9.842562675476074
1713723962280432981,-0.003195793367922306,0.001065264455974102,-0.01065264455974102,-0.05506663769483566,-0.30526071786880493,9.834183692932129
1713723962290432981,-0.002130528911948204,0.0,-0.01065264455974102,-0.04908113554120064,-0.2968810200691223,9.835380554199219
1713723962299432981,-0.001065264455974102,0.001065264455974102,-0.01065264455974102,-0.04429272934794426,-0.2908954918384552,9.837774276733398
1713723962309432981,-0.001065264455974102,0.0,-0.01065264455974102,-0.04429272934794426,-0.2932896912097931,9.837774276733398
1713723962318432981,-0.002130528911948204,0.0,-0.01065264455974102,-0.040701426565647125,-0.2992752194404602,9.842562675476074
1713723962328432981,-0.002130528911948204,0.0,-0.01065264455974102,-0.043095629662275314,-0.30286651849746704,9.840168952941895
1713723962337432981,-0.002130528911948204,0.0,-0.01065264455974102,-0.05267243832349777,-0.29448679089546204,9.848548889160156
1713723962347432981,0.001065264455974102,-0.002130528911948204,-0.01065264455974102,-0.014365210197865963,-0.038307227194309235,10.313023567199707
1713723962357432981,0.017044231295585632,-0.00532632227987051,-0.011717909015715122,0.002394201699644327,0.3471592366695404,10.309432029724121
1713723962366432981,0.04048004746437073,0.007456851191818714,-0.012783173471689224,0.15682020783424377,0.9528922438621521,10.121487617492676
1713723962376432981,0.07030745595693588,0.017044231295585632,-0.015978965908288956,0.21547815203666687,1.6124948263168335,10.371681213378906
1713723962385432981,0.11504855751991272,0.012783173471689224,-0.023435818031430244,-0.040701426565647125,1.6759411096572876,9.023746490478516
1713723962395432981,0.09374327212572098,0.00532632227987051,-0.02130528911948204,-0.020350713282823563,1.8806453943252563,8.779537200927734
1713723962405432981,0.04580637067556381,-0.012783173471689224,-0.02876213937997818,0.2214636504650116,2.603694200515747,11.008539199829102
1713723962414432981,0.047936901450157166,-0.027696875855326653,-0.037284255027770996,0.304063618183136,2.432508945465088,9.685742378234863
1713723962423432981,-0.03302319720387459,-0.019174760207533836,-0.037284255027770996,0.3770867586135864,1.98958158493042,8.42040729522705
1713723962433432981,-0.08309062570333481,-0.003195793367922306,-0.047936901450157166,0.31603461503982544,2.3056161403656006,10.60152530670166
1713723962443432981,-0.055393751710653305,0.02130528911948204,-0.04367584362626076,0.09696516394615173,2.027888774871826,9.751583099365234
1713723962453432981,-0.05965480953454971,0.03834952041506767,-0.04367584362626076,0.03711012750864029,1.50355863571167,8.629899978637695
1713723962462432981,-0.05326322093605995,0.02556634694337845,-0.04367584362626076,-0.15921440720558167,1.6089035272598267,9.841365814208984
1713723962472432981,-0.017044231295585632,0.002130528911948204,-0.04367584362626076,-0.3423708379268646,1.7202339172363281,10.145429611206055
1713723962481432981,-0.004261057823896408,-0.022370552644133568,-0.03621898964047432,-0.2669534981250763,1.5729905366897583,9.909600257873535
1713723962491432981,0.007456851191818714,-0.04048004746437073,-0.041545312851667404,-0.038307227194309235,1.4915876388549805,9.922768592834473
1713723962500432981,-0.01065264455974102,-0.04261057823896408,-0.047936901450157166,0.2537853717803955,1.580173134803772,10.63504409790039
1713723962510432981,-0.008522115647792816,-0.024501081556081772,-0.05752427875995636,0.29807811975479126,1.3443442583084106,10.824185371398926
1713723962519432981,-0.029827404767274857,0.011717909015715122,-0.05965480953454971,0.23104046285152435,0.9301473498344421,10.45547866821289
1713723962529432981,-0.015978965908288956,0.03195793181657791,-0.05645901337265968,0.14365209639072418,0.569819986820221,10.040084838867188
1713723962539432981,0.020240023732185364,0.022370552644133568,-0.05326322093605995,-0.37469255924224854,0.1711854189634323,8.987833023071289
1713723962548432981,0.029827404767274857,0.00532632227987051,-0.030892668291926384,-0.5422866940498352,0.27892449498176575,8.791508674621582
1713723962558432981,0.0511326938867569,-0.014913702383637428,-0.037284255027770996,-0.0933738648891449,0.5805938839912415,9.208099365234375
1713723962568432981,0.014913702383637428,-0.012783173471689224,-0.030892668291926384,0.16400282084941864,0.591367781162262,9.882067680358887
1713723962577432981,-0.041545312851667404,-0.007456851191818714,-0.04048004746437073,0.2322375625371933,0.3280056416988373,10.431536674499512
1713723962587432981,-0.08948221057653427,0.00532632227987051,-0.04048004746437073,0.09696516394615173,-0.208295539021492,10.237606048583984
1713723962597432981,-0.052197955548763275,-0.01810949482023716,-0.0511326938867569,-0.23582886159420013,-0.8379705548286438,9.96825885772705
1713723962606432981,-0.019174760207533836,-0.04261057823896408,-0.03195793181657791,-0.3890577554702759,-0.8248024582862854,9.600749015808105
1713723962615432981,0.06711165606975555,-0.03621898964047432,-0.034088462591171265,0.0454898327589035,0.009576806798577309,9.227252960205078
1713723962625432981,0.092678003013134,0.019174760207533836,-0.041545312851667404,0.38786065578460693,0.7206547260284424,9.048885345458984
1713723962634432981,0.07989483326673508,0.07030745595693588,-0.0511326938867569,0.2059013396501541,0.7876923680305481,8.610746383666992
1713723962644432981,-0.024501081556081772,0.08522115647792816,-0.0511326938867569,-0.09457096457481384,0.46088382601737976,10.016142845153809
1713723962654432981,-0.13315805792808533,0.044741105288267136,-0.049002163112163544,-0.39624038338661194,-0.4620809257030487,12.660538673400879
1713723962664432981,-0.09906959533691406,-0.0884169489145279,-0.04261057823896408,-1.2449848651885986,-2.2194249629974365,12.156558990478516
1713723962673432981,-0.07456851005554199,-0.1992044448852539,0.008522115647792816,-1.455674648284912,-2.7880477905273438,10.54645824432373
1713723962682432981,0.11078750342130661,-0.13635385036468506,0.014913702383637428,0.42856210470199585,-1.259350061416626,9.062053680419922
1713723962692432981,0.21411815285682678,0.024501081556081772,-0.04048004746437073,1.4077905416488647,0.5195417404174805,8.565256118774414
1713723962702432981,0.260989785194397,0.15978966653347015,-0.03621898964047432,0.9085995554924011,1.2737152576446533,8.305485725402832
1713723962711432981,0.1768338978290558,0.19707392156124115,-0.04367584362626076,0.3411737382411957,1.4951789379119873,8.105569839477539
1713723962721432981,0.019174760207533836,0.14274543523788452,-0.029827404767274857,-0.6093243360519409,1.5155296325683594,9.447519302368164
1713723962730432981,-0.16937704384326935,0.052197955548763275,-0.017044231295585632,-1.1049240827560425,0.9780313968658447,10.39083480834961
1713723962740432981,-0.2918824553489685,-0.052197955548763275,-0.015978965908288956,-0.8439561128616333,0.14006079733371735,11.015722274780273
1713723962749432981,-0.20666129887104034,-0.1757686287164688,0.00532632227987051,-1.1743558645248413,-1.3431471586227417,9.514557838439941
1713723962759432981,-0.14700649678707123,-0.2034655064344406,0.02556634694337845,-0.7577648162841797,-1.723825216293335,8.773551940917969
1713723962769432981,0.037284255027770996,-0.11078750342130661,0.009587380103766918,0.9864110946655273,-0.5255272388458252,9.410409927368164
1713723962779432981,0.08948221057653427,0.029827404767274857,-0.029827404767274857,1.6400281190872192,0.2346317619085312,9.949105262756348
1713723962788432981,0.0649811327457428,0.14913702011108398,-0.03515372797846794,1.07379949092865,0.09816227108240128,11.109095573425293
1713723962797432981,-0.027696875855326653,0.1619201898574829,-0.052197955548763275,0.14724339544773102,-0.5997475385665894,12.302605628967285
1713723962807432981,0.006391586735844612,0.015978965908288956,-0.03941478580236435,-1.3730746507644653,-1.5873557329177856,10.91037654876709
1713723962816432981,-0.013848437927663326,-0.10013485699892044,0.009587380103766918,-1.194706678390503,-1.5071499347686768,8.878896713256836
1713723962826432981,0.11291802674531937,-0.09800432622432709,-0.011717909015715122,0.2454056739807129,-0.023942016065120697,8.724471092224121
1713723962836432981,0.12889699637889862,-0.019174760207533836,-0.014913702383637428,0.7685387134552002,0.9995791912078857,8.556877136230469
1713723962846432981,0.1022653877735138,0.05965480953454971,-0.027696875855326653,0.8487445116043091,1.0893617868423462,8.580819129943848
1713723962855432981,-0.014913702383637428,0.10972223430871964,-0.02556634694337845,0.24660277366638184,0.8547300100326538,9.26675796508789
1713723962864432981,-0.13848437368869781,0.09800432622432709,-0.034088462591171265,-0.3770867586135864,0.6308721303939819,10.1753568649292
1713723962874432981,-0.18002969026565552,0.019174760207533836,-0.023435818031430244,-1.1563993692398071,-0.010773907415568829,10.380061149597168
1713723962884432981,-0.1299622654914856,-0.11185276508331299,-0.002130528911948204,-1.4772224426269531,-0.8367734551429749,9.48343276977539
1713723962893432981,-0.0884169489145279,-0.14594122767448425,0.022370552644133568,-0.26336216926574707,-0.7050923705101013,9.594762802124023
1713723962903432981,0.007456851191818714,-0.08522115647792816,-0.007456851191818714,0.9002197980880737,-0.50876784324646,10.360907554626465
1713723962912432981,-0.03195793181657791,0.03195793181657791,-0.011717909015715122,1.0642226934432983,-1.0031704902648926,10.946290016174316
1713723962922432981,-0.04687163606286049,0.09161274135112762,-0.03195793181657791,0.45010989904403687,-1.2461819648742676,12.757503509521484
1713723962932432981,0.05752427875995636,0.03195793181657791,-0.03302319720387459,-0.6452373266220093,-1.9285293817520142,10.928333282470703
1713723962941432981,0.07776430249214172,-0.009587380103766918,0.02130528911948204,-0.2238578498363495,-1.523909330368042,9.403226852416992
1713723962951432981,0.2407497614622116,-0.008522115647792816,-0.024501081556081772,0.3471592366695404,-0.1149216815829277,8.180987358093262
1713723962961432981,0.1757686287164688,0.05965480953454971,-0.012783173471689224,0.181959331035614,0.8834604024887085,7.775169849395752
1713723962970432981,0.10120011866092682,0.07030745595693588,-0.03195793181657791,-0.021547814831137657,1.521515130996704,9.097966194152832
1713723962980432981,-0.05006742849946022,0.05432848632335663,-0.022370552644133568,-0.3663128614425659,1.2114660739898682,9.066842079162598
1713723962989432981,-0.20985709130764008,0.0,-0.022370552644133568,-0.3495534360408783,0.7936778664588928,9.827000617980957
1713723962999432981,-0.2695119082927704,-0.058589544147253036,-0.014913702383637428,-0.20231004059314728,0.21308395266532898,10.539276123046875
1713723963008432981,-0.16085493564605713,-0.12463594228029251,-0.006391586735844612,-0.9026139974594116,-0.973242998123169,9.437942504882812
1713723963018432981,-0.1022653877735138,-0.11078750342130661,0.01810949482023716,-0.4572925269603729,-1.213860273361206,8.731653213500977
1713723963028432981,0.034088462591171265,-0.034088462591171265,-0.012783173471689224,1.071405291557312,-0.7553706169128418,10.497377395629883
1713723963037432981,0.006391586735844612,0.07776430249214172,-0.02130528911948204,1.2844891548156738,-1.0211269855499268,12.412738800048828
1713723963046432981,0.03834952041506767,0.092678003013134,-0.0511326938867569,0.18914192914962769,-1.742978811264038,13.19205093383789
1713723963056432981,0.0884169489145279,0.009587380103766918,-0.017044231295585632,-0.9864110946655273,-2.1272482872009277,10.590750694274902
1713723963066432981,0.13848437368869781,-0.041545312851667404,0.012783173471689224,-0.25258827209472656,-0.8140285611152649,8.926780700683594
1713723963075432981,0.2599245309829712,-0.013848437927663326,-0.019174760207533836,0.4082113802433014,0.6488286256790161,8.161833763122559
1713723963085432981,0.2183792144060135,0.07243797928094864,-0.019174760207533836,0.16519992053508759,1.0845733880996704,7.114370346069336
1713723963095432981,0.09693906456232071,0.10120011866092682,-0.024501081556081772,-0.07900865375995636,1.4664485454559326,8.397662162780762
1713723963104432981,-0.07030745595693588,0.06711165606975555,-0.02556634694337845,-0.5015852451324463,1.3539210557937622,9.643844604492188
1713723963114432981,-0.23861923813819885,-0.002130528911948204,-0.013848437927663326,-0.6596025824546814,0.833182156085968,9.856927871704102
1713723963123432981,-0.3099919557571411,-0.07456851005554199,-0.007456851191818714,-0.40701428055763245,0.12928688526153564,10.463858604431152
1713723963133432981,-0.19174760580062866,-0.15020228922367096,0.001065264455974102,-0.8667010068893433,-1.159990668296814,9.534908294677734
1713723963143432981,-0.11398329585790634,-0.1257012039422989,0.03302319720387459,-0.05027823522686958,-1.499967336654663,9.175777435302734
1713723963152432981,0.013848437927663326,-0.02556634694337845,-0.014913702383637428,1.2988543510437012,-1.036689281463623,11.523292541503906
1713723963162432981,0.04261057823896408,0.0884169489145279,-0.02130528911948204,1.2952630519866943,-1.4269441366195679,12.830526351928711
1713723963171790941,0.09374327212572098,0.08202536404132843,-0.052197955548763275,-0.028730420395731926,-2.250549554824829,12.126631736755371
1713723963181790941,0.11291802674531937,0.023435818031430244,-0.00532632227987051,-0.9900023937225342,-2.055422067642212,9.701305389404297
1713723963191790941,0.18855179846286774,-0.02130528911948204,-0.008522115647792816,0.0011971008498221636,-0.21547815203666687,8.831012725830078
1713723963200790941,0.23329290747642517,0.006391586735844612,-0.017044231295585632,0.35913026332855225,1.2473790645599365,8.49941635131836
1713723963210790941,0.18429075181484222,0.047936901450157166,-0.024501081556081772,0.104147769510746,1.4652514457702637,7.315483093261719
1713723963219790941,0.04687163606286049,0.05752427875995636,-0.014913702383637428,-0.11971008032560349,1.502361536026001,7.957129001617432
1713723963229790941,-0.11824434995651245,0.030892668291926384,-0.024501081556081772,-0.28371289372444153,1.315613865852356,9.544485092163086
1713723963238790941,-0.25672873854637146,-0.004261057823896408,-0.013848437927663326,-0.25258827209472656,0.7003039717674255,10.141838073730469
1713723963248790941,-0.2737729549407959,-0.05645901337265968,-0.015978965908288956,-0.5147533416748047,-0.26575639843940735,10.664971351623535
1713723963257790941,-0.14913702011108398,-0.13315805792808533,-0.007456851191818714,-1.0570399761199951,-1.6591817140579224,9.749189376831055
1713723963268790941,-0.07137271761894226,-0.11398329585790634,0.024501081556081772,0.11372458189725876,-1.7274165153503418,10.166976928710938
1713723963277790941,0.07669904083013535,-0.027696875855326653,-0.02876213937997818,1.2509703636169434,-1.072602391242981,11.335348129272461
1713723963286790941,0.03834952041506767,0.092678003013134,-0.02556634694337845,1.1037269830703735,-1.1875240802764893,11.312602996826172
1713723963296790941,0.05326322093605995,0.1161138266324997,-0.06178533658385277,0.20709843933582306,-1.238999366760254,11.903970718383789
1713723963305790941,0.10333064943552017,0.04687163606286049,-0.02876213937997818,-0.8439561128616333,-1.2330138683319092,9.853337287902832
1713723963315790941,0.1299622654914856,-0.014913702383637428,0.001065264455974102,-0.507570743560791,-0.3076549172401428,8.842984199523926
1713723963325790941,0.20559602975845337,-0.020240023732185364,-0.020240023732185364,-0.06823474913835526,0.7613561153411865,8.242039680480957
1713723963334790941,0.1438107043504715,0.011717909015715122,-0.007456851191818714,0.03711012750864029,1.0558428764343262,7.384914875030518
1713723963344790941,0.024501081556081772,0.015978965908288956,-0.015978965908288956,-0.014365210197865963,1.2952630519866943,8.792705535888672
1713723963353790941,-0.10972223430871964,0.012783173471689224,-0.017044231295585632,-0.1388636976480484,1.037886381149292,9.62947940826416
1713723963363790941,-0.24288028478622437,0.0,-0.02130528911948204,-0.03711012750864029,0.4596867263317108,10.054450035095215
1713723963372790941,-0.23435817658901215,-0.041545312851667404,-0.019174760207533836,-0.38307225704193115,-0.4129997789859772,10.38844108581543
1713723963382790941,-0.12357067316770554,-0.10972223430871964,-0.003195793367922306,-0.9911994934082031,-1.5394716262817383,9.832985877990723
1713723963392790941,-0.04580637067556381,-0.0884169489145279,0.01810949482023716,0.03232172131538391,-1.5394716262817383,10.90798282623291
1713723963401790941,0.08948221057653427,-0.006391586735844612,-0.023435818031430244,1.1695674657821655,-1.1695674657821655,11.615468978881836
1713723963411790941,0.05006742849946022,0.09161274135112762,-0.026631610468029976,0.9516951441764832,-1.2485761642456055,11.550826072692871
1713723963420790941,0.11717908829450607,0.08202536404132843,-0.05645901337265968,-0.06703764945268631,-1.3623007535934448,10.576385498046875
1713723963430790941,0.10333064943552017,0.03302319720387459,-0.009587380103766918,-0.6476315259933472,-0.8248024582862854,8.795100212097168
1713723963439790941,0.18855179846286774,-0.019174760207533836,-0.01810949482023716,-0.4429273009300232,0.395043283700943,8.042123794555664
1713723963450790941,0.14594122767448425,-0.01065264455974102,-0.015978965908288956,-0.37229835987091064,1.237802267074585,8.233659744262695
1713723963459790941,0.06711165606975555,-0.012783173471689224,-0.017044231295585632,-0.11133037507534027,1.316810965538025,9.187748908996582
1713723963468790941,-0.07669904083013535,-0.01810949482023716,-0.011717909015715122,0.0347159244120121,0.7314286231994629,9.745597839355469
1713723963478790941,-0.2045307755470276,-0.019174760207533836,-0.02130528911948204,0.1256955862045288,0.21667525172233582,10.336965560913086
1713723963488790941,-0.19281286001205444,-0.047936901450157166,-0.024501081556081772,-0.2561795711517334,-0.5746083855628967,10.453083992004395
1713723963497790941,-0.08096009492874146,-0.10865697264671326,-0.009587380103766918,-0.7637503147125244,-1.357512354850769,9.467870712280273
1713723963507790941,0.011717909015715122,-0.07989483326673508,0.007456851191818714,0.13527239859104156,-0.8990226984024048,9.727641105651855
1713723963517790941,0.13102751970291138,-0.004261057823896408,-0.02876213937997818,1.0462660789489746,-0.5303156971931458,10.526107788085938
1713723963526790941,0.07456851005554199,0.08948221057653427,-0.029827404767274857,0.7829039692878723,-0.8595184087753296,10.796652793884277
1713723963535790941,-0.002130528911948204,0.11504855751991272,-0.04048004746437073,0.2609679698944092,-0.7996633648872375,12.270283699035645
1713723963545790941,0.06178533658385277,0.020240023732185364,-0.03941478580236435,-1.0259153842926025,-1.0618284940719604,9.953893661499023
1713723963554790941,0.037284255027770996,-0.06285060197114944,0.009587380103766918,-1.0869675874710083,-0.5638344883918762,8.118738174438477
1713723963564790941,0.1576591432094574,-0.10013485699892044,-0.01810949482023716,0.08379705995321274,0.4106055796146393,7.948749542236328
1713723963574790941,0.09054747968912125,-0.0511326938867569,-0.006391586735844612,0.5602431893348694,0.8355763554573059,8.736441612243652
1713723963583790941,0.012783173471689224,-0.003195793367922306,-0.027696875855326653,0.6105214357376099,0.9744400978088379,10.414776802062988
1713723963593790941,-0.10013485699892044,0.04687163606286049,-0.027696875855326653,0.365115761756897,0.5434837937355042,9.713275909423828
1713723963603790941,-0.17257283627986908,0.049002163112163544,-0.041545312851667404,0.25737667083740234,0.17238251864910126,10.000580787658691
1713723963612790941,-0.07563377171754837,-0.03195793181657791,-0.04048004746437073,-0.8798691034317017,-0.7673416137695312,9.261969566345215
1713723963622790941,-0.06711165606975555,-0.08522115647792816,0.006391586735844612,-0.9696516990661621,-1.0259153842926025,9.386467933654785
1713723963632790941,0.047936901450157166,-0.08522115647792816,-0.017044231295585632,0.3076549172401428,-0.456095427274704,10.346542358398438
1713723963641790941,-0.004261057823896408,-0.001065264455974102,-0.006391586735844612,0.7410054206848145,-0.4453215003013611,11.276689529418945
1713723963651790941,-0.02556634694337845,0.05645901337265968,-0.03302319720387459,0.7589619159698486,-0.7493851184844971,12.744335174560547
1713723963660790941,0.0649811327457428,0.01810949482023716,-0.03302319720387459,-0.6200982332229614,-1.580173134803772,10.204087257385254
1713723963670790941,0.06391586363315582,-0.030892668291926384,0.004261057823896408,-0.8655039072036743,-1.1288660764694214,8.414422035217285
1713723963679790941,0.20666129887104034,-0.0511326938867569,-0.020240023732185364,0.22026655077934265,0.17238251864910126,7.842207431793213
1713723963689790941,0.13741911947727203,-0.003195793367922306,-0.015978965908288956,0.46327802538871765,0.9145850539207458,8.613140106201172
1713723963699790941,0.047936901450157166,0.023435818031430244,-0.037284255027770996,0.3758896589279175,1.1264718770980835,10.307038307189941
1713723963708790941,-0.09587380290031433,0.041545312851667404,-0.022370552644133568,0.06703764945268631,0.6787561774253845,9.702502250671387
1713723963718790941,-0.19813919067382812,0.02130528911948204,-0.03302319720387459,-0.04189852997660637,0.30286651849746704,9.908403396606445
1713723963727790941,-0.1257012039422989,-0.05645901337265968,-0.024501081556081772,-0.3124433159828186,-0.4321534037590027,8.939949035644531
1713723963737790941,-0.1065264418721199,-0.09374327212572098,0.01065264455974102,-0.507570743560791,-0.772130012512207,8.893261909484863
1713723963746790941,0.002130528911948204,-0.06711165606975555,-0.003195793367922306,0.11252747476100922,-0.43933600187301636,10.334571838378906
1713723963756790941,-0.01065264455974102,0.02130528911948204,-0.001065264455974102,0.833182156085968,-0.4728548228740692,11.438298225402832
1713723963766790941,0.006391586735844612,0.07456851005554199,-0.02556634694337845,0.24779987335205078,-0.9373299479484558,12.6150484085083
1713723963775790941,0.09161274135112762,0.037284255027770996,-0.020240023732185364,-0.9433154463768005,-1.9177554845809937,10.697293281555176
1713723963785790941,0.10120011866092682,-0.024501081556081772,0.01065264455974102,-0.6943184733390808,-1.525106430053711,9.355342864990234
1713723963794790941,0.22477079927921295,-0.06072007119655609,-0.009587380103766918,0.07900865375995636,-0.11372458189725876,8.467094421386719
1713723963804790941,0.15446333587169647,-0.02130528911948204,-0.007456851191818714,0.25258827209472656,0.7757213115692139,8.343792915344238
1713723963814790941,0.07030745595693588,0.017044231295585632,-0.020240023732185364,0.3663128614425659,1.2521674633026123,9.639056205749512
1713723963823790941,-0.05645901337265968,0.04687163606286049,-0.012783173471689224,0.29209259152412415,0.933738648891449,9.246406555175781
1713723963833790941,-0.17470337450504303,0.05432848632335663,-0.012783173471689224,0.13766659796237946,0.6464344263076782,9.375693321228027
1713723963842790941,-0.17470337450504303,0.014913702383637428,-0.008522115647792816,-0.42018237709999084,0.3447650372982025,9.640253067016602
1713723963852790941,-0.10013485699892044,-0.06817692518234253,0.007456851191818714,-0.729034423828125,-0.47884032130241394,8.711302757263184
1713723963861790941,-0.05645901337265968,-0.092678003013134,0.030892668291926384,0.23822306096553802,-0.606930136680603,9.556455612182617
1713723963871790941,0.008522115647792816,-0.04580637067556381,0.00532632227987051,0.9840168952941895,-0.47405192255973816,11.27070426940918
1713723963881790941,-0.04048004746437073,0.06285060197114944,-0.001065264455974102,0.667982280254364,-1.2042834758758545,11.620257377624512
1713723963890790941,0.012783173471689224,0.07137271761894226,-0.02876213937997818,-0.416591078042984,-2.056619167327881,12.303802490234375
1713723963900790941,0.08309062570333481,-0.017044231295585632,0.0,-1.3611036539077759,-2.1475989818573,10.253169059753418
1713723963909790941,0.16298545897006989,-0.06178533658385277,0.019174760207533836,-0.4082113802433014,-0.42377370595932007,9.308655738830566
1713723963919790941,0.2822950780391693,-0.05326322093605995,-0.013848437927663326,0.6584054827690125,0.9421183466911316,8.639476776123047
1713723963928790941,0.2130528837442398,0.024501081556081772,-0.01065264455974102,0.5303156971931458,1.0857704877853394,7.327454090118408
1713723963938790941,0.06391586363315582,0.05965480953454971,-0.019174760207533836,0.2322375625371933,1.3898340463638306,9.278728485107422
1713723963947790941,-0.08096009492874146,0.05432848632335663,-0.001065264455974102,0.05147533491253853,1.0079588890075684,9.728838920593262
1713723963957790941,-0.25353294610977173,0.029827404767274857,0.015978965908288956,-0.03232172131538391,0.48722004890441895,9.616311073303223
1713723963967790941,-0.2918824553489685,0.009587380103766918,0.001065264455974102,0.14844051003456116,0.16400282084941864,10.098742485046387
1713723963976790941,-0.14487595856189728,-0.06711165606975555,0.00532632227987051,-0.6129156351089478,-1.1037269830703735,8.644265174865723
1713723963986790941,-0.1065264418721199,-0.09800432622432709,0.04048004746437073,-0.3770867586135864,-1.2425906658172607,9.425971984863281
1713723963996790941,0.06072007119655609,-0.03941478580236435,0.006391586735844612,1.0211269855499268,-0.4381389021873474,10.608707427978516
1713723964006790941,-0.002130528911948204,0.09054747968912125,0.002130528911948204,1.1085153818130493,-0.6332663297653198,11.984176635742188
1713723964015790941,-0.008522115647792816,0.14913702011108398,-0.02876213937997818,0.1604115068912506,-1.1444283723831177,14.347253799438477
1713723964024790941,0.10439591109752655,0.044741105288267136,-0.020240023732185364,-1.599326729774475,-2.2900538444519043,10.769119262695312
1713723964034790941,0.11398329585790634,-0.04580637067556381,0.024501081556081772,-1.0558428764343262,-1.7729063034057617,8.254010200500488
1713723964044790941,0.30786141753196716,-0.09906959533691406,-0.006391586735844612,0.4189852774143219,0.047884032130241394,7.491456985473633
1713723964053790941,0.22050973773002625,-0.044741105288267136,-0.003195793367922306,0.4082113802433014,1.213860273361206,7.842207431793213
1713723964063790941,0.13315805792808533,-0.004261057823896408,-0.02556634694337845,0.22864626348018646,1.7525556087493896,9.138668060302734
1713723964072790941,-0.055393751710653305,0.02876213937997818,0.002130528911948204,0.2454056739807129,1.4389152526855469,9.093177795410156
1713723964082790941,-0.21518342196941376,0.02876213937997818,-0.014913702383637428,0.4141968786716461,1.2425906658172607,9.57321548461914
1713723964091790941,-0.29507824778556824,0.044741105288267136,0.009587380103766918,0.5195417404174805,0.8882488012313843,9.058462142944336
1713723964101790941,-0.222640261054039,0.024501081556081772,-0.024501081556081772,-0.20231004059314728,-0.15801730751991272,9.275136947631836
1713723964110790941,-0.10546118021011353,-0.034088462591171265,0.00532632227987051,-0.7757213115692139,-1.3970166444778442,9.50857162475586
1713723964121790941,-0.04687163606286049,-0.05006742849946022,0.022370552644133568,0.14006079733371735,-1.5550339221954346,11.803414344787598
1713723964130790941,0.02556634694337845,0.003195793367922306,-0.007456851191818714,0.6332663297653198,-1.7489643096923828,13.21359920501709
1713723964139790941,0.05432848632335663,0.03195793181657791,-0.02556634694337845,-0.017956512048840523,-2.5713725090026855,11.994950294494629
1713723964149790941,0.11398329585790634,-0.014913702383637428,-0.015978965908288956,-0.8571242094039917,-2.2900538444519043,10.029311180114746
1713723964158790941,0.19174760580062866,-0.03621898964047432,0.007456851191818714,-0.16879121959209442,-0.23343466222286224,9.435548782348633
1713723964168790941,0.3110572099685669,-0.019174760207533836,-0.02130528911948204,0.7493851184844971,1.2449848651885986,8.395268440246582
1713723964178790941,0.24501082301139832,0.05326322093605995,-0.02130528911948204,0.50876784324646,1.3275848627090454,6.852205276489258
1713723964187790941,0.08948221057653427,0.07137271761894226,-0.023435818031430244,0.19871874153614044,1.6555904150009155,8.614337921142578
1713723964197790941,-0.07776430249214172,0.05006742849946022,-0.011717909015715122,-0.17477671802043915,1.4437036514282227,9.66658878326416
1713723964206790941,-0.2556634545326233,0.012783173471689224,0.003195793367922306,-0.2298433631658554,0.9062053561210632,9.501389503479004
1713723964216790941,-0.32703617215156555,-0.012783173471689224,-0.007456851191818714,-0.02513911761343479,0.21547815203666687,9.93474006652832
1713723964225790941,-0.18855179846286774,-0.08522115647792816,-0.014913702383637428,-0.3232172131538391,-1.137245774269104,8.96269416809082
1713723964235790941,-0.14061491191387177,-0.11930961906909943,0.020240023732185364,-0.4824316203594208,-1.6316484212875366,9.81143856048584
1713723964245790941,0.012783173471689224,-0.06285060197114944,0.003195793367922306,0.5865793824195862,-1.1037269830703735,12.107478141784668
1713723964254790941,0.008522115647792816,0.07456851005554199,-0.012783173471689224,1.235408067703247,-1.1109095811843872,13.029245376586914
1713723964264790941,0.11824434995651245,0.11185276508331299,-0.047936901450157166,-0.14245499670505524,-2.005143880844116,12.289437294006348
1713723964273790941,0.16085493564605713,0.05752427875995636,-0.001065264455974102,-1.5119383335113525,-2.100911855697632,9.284713745117188
1713723964283790941,0.2545982003211975,-0.009587380103766918,0.009587380103766918,-0.45250412821769714,-0.243011474609375,8.607154846191406
1713723964292790941,0.2886866629123688,-0.02876213937997818,0.001065264455974102,0.5482721924781799,1.3958195447921753,8.5101900100708
1713723964302790941,0.2087918221950531,-0.001065264455974102,-0.00532632227987051,0.2693476974964142,1.7262194156646729,7.41603946685791
1713723964312790941,0.03302319720387459,0.01065264455974102,0.0,0.10893617570400238,1.7345991134643555,8.127117156982422
1713723964321790941,-0.1395496428012848,0.01065264455974102,0.002130528911948204,0.08738835901021957,1.43532395362854,9.17936897277832
1713723964331790941,-0.29401299357414246,0.01810949482023716,0.003195793367922306,0.2669534981250763,0.9289502501487732,9.478644371032715
1713723964340790941,-0.3440804183483124,0.02556634694337845,0.0,0.42616790533065796,0.14365209639072418,10.453083992004395
1713723964350790941,-0.17363810539245605,-0.03515372797846794,-0.019174760207533836,-0.34596213698387146,-1.6412252187728882,9.491812705993652
1713723964360790941,-0.12144014239311218,-0.08522115647792816,0.02876213937997818,-0.7541735172271729,-2.3044190406799316,10.066420555114746
1713723964370790941,0.03834952041506767,-0.055393751710653305,0.009587380103766918,0.5662286877632141,-1.2030863761901855,12.385205268859863
1713723964379790941,0.04048004746437073,0.07350324839353561,-0.00532632227987051,1.3072340488433838,-0.690727174282074,12.48935317993164
1713723964389790941,0.08415588736534119,0.14487595856189728,-0.04261057823896408,0.17477671802043915,-1.0570399761199951,11.672929763793945
1713723964398790941,0.15233281254768372,0.09480853378772736,-0.026631610468029976,-1.2868833541870117,-1.459265947341919,8.957905769348145
1713723964408790941,0.1768338978290558,0.013848437927663326,0.009587380103766918,-0.8355763554573059,-0.42616790533065796,8.547300338745117
1713723964417790941,0.250337153673172,-0.0511326938867569,-0.007456851191818714,0.15083470940589905,0.8906430006027222,8.377311706542969
1713723964427790941,0.1342233121395111,-0.041545312851667404,-0.001065264455974102,0.25498247146606445,1.1959037780761719,7.931990146636963
1713723964436790941,-0.007456851191818714,-0.024501081556081772,-0.017044231295585632,0.3387795388698578,1.3204022645950317,9.048885345458984
1713723964446790941,-0.16618125140666962,0.00532632227987051,-0.001065264455974102,0.4034229815006256,1.0654197931289673,9.45111083984375
1713723964456790941,-0.27057716250419617,0.026631610468029976,-0.017044231295585632,0.3842693567276001,0.669179379940033,9.576807022094727
1713723964465790941,-0.26205503940582275,0.03834952041506767,-0.012783173471689224,-0.1280897855758667,0.043095629662275314,10.612298965454102
1713723964475790941,-0.10546118021011353,-0.03834952041506767,-0.023435818031430244,-0.8894459009170532,-1.434126853942871,9.859322547912598
1713723964485790941,-0.06711165606975555,-0.06285060197114944,0.027696875855326653,-0.020350713282823563,-1.8962076902389526,10.430339813232422
1713723964494790941,0.08522115647792816,-0.020240023732185364,-0.013848437927663326,0.9600748419761658,-1.4329296350479126,11.749545097351074
1713723964503790941,0.01810949482023716,0.09054747968912125,-0.012783173471689224,0.6212953329086304,-1.238999366760254,11.492168426513672
1713723964513790941,0.10865697264671326,0.09161274135112762,-0.0511326938867569,-0.4357447028160095,-1.2270283699035645,11.33654499053955
1713723964523790941,0.12463594228029251,0.026631610468029976,-0.01065264455974102,-1.1061211824417114,-1.0654197931289673,9.034520149230957
1713723964532790941,0.20985709130764008,-0.052197955548763275,-0.006391586735844612,-0.20949263870716095,0.20949263870716095,8.35456657409668
1713723964542790941,0.20133498311042786,-0.06285060197114944,-0.02130528911948204,0.30286651849746704,1.335964560508728,8.585607528686523
1713723964552790941,0.11824434995651245,-0.023435818031430244,-0.024501081556081772,0.2849099934101105,1.5322890281677246,8.285135269165039
1713723964561790941,-0.034088462591171265,0.01065264455974102,-0.023435818031430244,0.23582886159420013,1.3275848627090454,8.992621421813965
1713723964571790941,-0.15552860498428345,0.03834952041506767,-0.01810949482023716,0.14724339544773102,0.9397241473197937,9.428365707397461
1713723964580790941,-0.2514024078845978,0.05432848632335663,-0.008522115647792816,0.10534487664699554,0.4836287498474121,9.27034854888916
1713723964590790941,-0.2087918221950531,0.02876213937997818,-0.020240023732185364,-0.5961562395095825,-0.14604629576206207,9.734824180603027
1713723964599790941,-0.11185276508331299,-0.05645901337265968,0.004261057823896408,-1.1049240827560425,-1.0570399761199951,9.398438453674316
1713723964609790941,-0.07350324839353561,-0.08735168725252151,0.03195793181657791,-0.038307227194309235,-1.0247182846069336,11.461043357849121
1713723964619790941,0.015978965908288956,-0.03195793181657791,0.013848437927663326,0.7410054206848145,-1.0103530883789062,12.389993667602539
1713723964628790941,-0.017044231295585632,0.07243797928094864,0.006391586735844612,0.3100491166114807,-1.5909470319747925,11.998541831970215
1713723964638790941,0.11185276508331299,0.06072007119655609,-0.011717909015715122,-1.0666168928146362,-2.092532157897949,10.754754066467285
1713723964647790941,0.13102751970291138,0.015978965908288956,0.04048004746437073,-0.9923965930938721,-1.3503297567367554,8.901641845703125
1713723964657790941,0.2929477095603943,-0.027696875855326653,0.02556634694337845,0.090979665517807,0.3926490843296051,8.202534675598145
1713723964667790941,0.22157500684261322,0.006391586735844612,0.027696875855326653,-0.10295066982507706,1.5622166395187378,7.881711959838867
1713723964676790941,0.11185276508331299,0.03515372797846794,0.019174760207533836,-0.13407529890537262,2.117671251296997,8.415618896484375
1713723964685790941,-0.08309062570333481,0.04261057823896408,0.037284255027770996,-0.09935937076807022,1.824381709098816,8.926780700683594
1713723964695790941,-0.24501082301139832,0.02876213937997818,0.030892668291926384,-0.023942016065120697,1.3096283674240112,9.488221168518066
1713723964705790941,-0.3398193418979645,0.011717909015715122,0.04687163606286049,-0.040701426565647125,0.33279404044151306,10.029311180114746
1713723964714790941,-0.20026971399784088,-0.07563377171754837,0.02876213937997818,-0.7481880187988281,-1.3239935636520386,9.334992408752441
1713723964724790941,-0.1533980816602707,-0.12463594228029251,0.08522115647792816,-0.8271966576576233,-1.9129670858383179,9.23563289642334
1713723964734790941,-0.001065264455974102,-0.08096009492874146,0.06285060197114944,0.4692635238170624,-1.0630255937576294,12.100295066833496
1713723964743790941,0.01065264455974102,0.06285060197114944,0.0511326938867569,1.213860273361206,-0.9289502501487732,13.111845016479492
1713723964753790941,0.07137271761894226,0.12250541150569916,0.009587380103766918,0.395043283700943,-1.788468599319458,12.233173370361328
1713723964762790941,0.1438107043504715,0.06285060197114944,0.034088462591171265,-1.1073182821273804,-2.126051187515259,9.543288230895996
1713723964772790941,0.19707392156124115,-0.003195793367922306,0.05432848632335663,-0.8643068075180054,-0.5937620401382446,8.676587104797363
1713723964781790941,0.2918824553489685,-0.03302319720387459,0.03834952041506767,0.19273322820663452,0.9768342971801758,8.470685005187988
1713723964792790941,0.19600865244865417,-0.003195793367922306,0.04367584362626076,0.243011474609375,1.3215993642807007,7.623137950897217
1713723964800790941,0.03515372797846794,0.022370552644133568,0.03941478580236435,0.06703764945268631,1.5131354331970215,8.732851028442383
1713723964810790941,-0.13528858125209808,0.034088462591171265,0.055393751710653305,-0.04189852997660637,1.2497732639312744,9.385270118713379
1713723964820790941,-0.28122982382774353,0.03195793181657791,0.05965480953454971,-0.06344634294509888,0.8391676545143127,9.534908294677734
1713723964829790941,-0.30892667174339294,0.026631610468029976,0.058589544147253036,0.20111294090747833,0.22744916379451752,10.347739219665527
1713723964839790941,-0.14061491191387177,-0.06391586363315582,0.03834952041506767,-0.8655039072036743,-1.4724340438842773,9.522936820983887
1713723964848790941,-0.11291802674531937,-0.10972223430871964,0.08522115647792816,-0.529118537902832,-1.9716250896453857,10.222043991088867
1713723964858790941,0.049002163112163544,-0.07350324839353561,0.03515372797846794,1.4736311435699463,-1.422155737876892,11.981781959533691
1713723964868790941,-0.004261057823896408,0.04367584362626076,0.023435818031430244,1.8040308952331543,-1.3215993642807007,12.196063041687012
1713723964877790941,0.07456851005554199,0.09054747968912125,-0.03302319720387459,0.7757213115692139,-1.3491326570510864,11.559206008911133
1713723964887790941,0.1438107043504715,0.07669904083013535,-0.013848437927663326,-0.4513069987297058,-1.235408067703247,8.3306245803833
1713723964896790941,0.23755396902561188,0.022370552644133568,-0.004261057823896408,-0.05027823522686958,0.17238251864910126,7.693767070770264
1713723964906790941,0.258859246969223,-0.001065264455974102,-0.02556634694337845,0.39624038338661194,1.3299790620803833,8.60116958618164
1713723964916790941,0.14168016612529755,0.006391586735844612,-0.020240023732185364,0.2968810200691223,1.3239935636520386,8.668207168579102
1713723964925790941,-0.07456851005554199,0.004261057823896408,-0.02556634694337845,0.2801215946674347,1.039083480834961,10.092757225036621
1713723964935790941,-0.23968449234962463,0.006391586735844612,-0.022370552644133568,0.1975216418504715,0.7050923705101013,10.198101997375488
1713723964945790941,-0.3004045784473419,0.011717909015715122,-0.01810949482023716,0.14604629576206207,0.02992752008140087,9.84615421295166
1713723964954790941,-0.13741911947727203,-0.06285060197114944,-0.03621898964047432,-0.8655039072036743,-1.545457124710083,8.662221908569336
1713723964963790941,-0.09374327212572098,-0.10013485699892044,0.01810949482023716,-0.6320692300796509,-1.8351556062698364,9.315838813781738
1713723964974790941,0.08522115647792816,-0.0649811327457428,-0.02556634694337845,0.8786720037460327,-0.7565677165985107,11.479000091552734
1713723964983790941,0.041545312851667404,0.05326322093605995,-0.02556634694337845,1.3239935636520386,-0.4920084476470947,12.42590618133545
1713723964992790941,0.013848437927663326,0.1342233121395111,-0.05326322093605995,0.9564835429191589,-0.5817909836769104,12.536040306091309
1713723965002790941,0.10013485699892044,0.12357067316770554,-0.04687163606286049,-0.9469067454338074,-1.2545616626739502,9.135076522827148
1713723965012790941,0.10759171098470688,0.05006742849946022,-0.008522115647792816,-1.4915876388549805,-0.9241618514060974,7.527369976043701
1713723965021790941,0.222640261054039,-0.019174760207533836,-0.00532632227987051,-0.5781996846199036,0.5770025849342346,7.839813232421875
1713723965031790941,0.13528858125209808,-0.034088462591171265,0.001065264455974102,-0.31124621629714966,1.5047557353973389,9.216479301452637
1713723965040790941,0.019174760207533836,-0.024501081556081772,-0.007456851191818714,-0.03232172131538391,1.3694833517074585,10.17296314239502
1713723965050790941,-0.15659387409687042,0.009587380103766918,0.001065264455974102,0.23343466222286224,0.6835445761680603,9.513360023498535
1713723965059790941,-0.258859246969223,0.03195793181657791,-0.012783173471689224,0.090979665517807,0.26575639843940735,9.568427085876465
1713723965069790941,-0.13635385036468506,-0.01065264455974102,-0.012783173471689224,-0.6607996821403503,-0.6356605291366577,8.842984199523926
1713723965078790941,-0.09054747968912125,-0.06924218684434891,0.019174760207533836,-0.6619967818260193,-1.072602391242981,9.090784072875977
1713723965088790941,0.04687163606286049,-0.07456851005554199,0.014913702383637428,0.1975216418504715,-0.45848962664604187,10.539276123046875
1713723965098790941,0.02130528911948204,0.00532632227987051,0.004261057823896408,0.894234299659729,-0.29209259152412415,12.319364547729492
1713723965107790941,-0.02876213937997818,0.0788295716047287,-0.013848437927663326,0.9852139949798584,-1.0342950820922852,12.088324546813965
1713723965117790941,0.008522115647792816,0.0788295716047287,-0.02130528911948204,0.005985504016280174,-1.7357962131500244,10.474632263183594
1713723965127790941,0.07350324839353561,0.009587380103766918,-0.006391586735844612,-1.1025298833847046,-1.4628572463989258,8.644265174865723
1713723965136790941,0.1810949593782425,-0.029827404767274857,0.017044231295585632,-0.4967968463897705,0.11252747476100922,8.398859024047852
1713723965146790941,0.22796659171581268,-0.034088462591171265,-0.017044231295585632,0.3124433159828186,1.2545616626739502,9.379284858703613
1713723965156790941,0.1299622654914856,0.017044231295585632,-0.009587380103766918,0.2513911724090576,1.0414776802062988,8.974664688110352
1713723965165790941,-0.05752427875995636,0.04687163606286049,-0.02130528911948204,0.2561795711517334,0.6943184733390808,9.866504669189453
1713723965174790941,-0.1949433982372284,0.052197955548763275,-0.014913702383637428,0.10175357013940811,0.5327098965644836,9.923965454101562
1713723965184790941,-0.24820661544799805,0.041545312851667404,-0.003195793367922306,-0.13527239859104156,0.1951274424791336,9.975440979003906
1713723965193790941,-0.10759171098470688,-0.03941478580236435,-0.019174760207533836,-1.2832920551300049,-1.0654197931289673,9.030928611755371
1713723965203790941,-0.0884169489145279,-0.09054747968912125,0.03941478580236435,-0.834379255771637,-1.2749123573303223,9.257181167602539
1713723965213790941,0.04580637067556381,-0.0788295716047287,-0.004261057823896408,0.6991068720817566,-0.48602294921875,10.624269485473633
1713723965223790941,-0.014913702383637428,0.022370552644133568,0.00532632227987051,1.158793568611145,-0.545877993106842,11.54244613647461
1713723965232790941,-0.0511326938867569,0.07456851005554199,-0.02876213937997818,1.1552022695541382,-0.7433996200561523,12.72637939453125
1713723965242790941,0.05432848632335663,0.058589544147253036,-0.027696875855326653,-0.811634361743927,-1.479616641998291,10.11789608001709
1713723965251790941,0.07669904083013535,0.024501081556081772,0.013848437927663326,-1.1994950771331787,-1.1731587648391724,8.189366340637207
1713723965261790941,0.23968449234962463,-0.007456851191818714,-0.008522115647792816,0.13287819921970367,0.295683890581131,7.666233539581299
1713723965270790941,0.1672465205192566,0.022370552644133568,0.007456851191818714,0.30885201692581177,1.2737152576446533,8.943540573120117
1713723965280790941,0.06285060197114944,0.03834952041506767,-0.01810949482023716,0.15083470940589905,1.437718152999878,10.260351181030273
1713723965289790941,-0.1161138266324997,0.05326322093605995,0.0,0.031124621629714966,0.8762778043746948,9.487024307250977
1713723965299790941,-0.24714134633541107,0.030892668291926384,-0.015978965908288956,-0.11971008032560349,0.5770025849342346,9.409212112426758
1713723965309790941,-0.18748654425144196,-0.023435818031430244,-0.004261057823896408,-0.8930371999740601,-0.2190694510936737,9.045293807983398
1713723965318790941,-0.11504855751991272,-0.09800432622432709,0.008522115647792816,-1.0067617893218994,-1.0211269855499268,8.93037223815918
1713723965328790941,-0.023435818031430244,-0.10013485699892044,0.015978965908288956,0.13766659796237946,-0.606930136680603,10.563218116760254
1713723965338790941,0.01810949482023716,-0.027696875855326653,-0.006391586735844612,0.9289502501487732,-0.5734112858772278,11.973402976989746
1713723965347790941,-0.030892668291926384,0.06072007119655609,-0.023435818031430244,0.9469067454338074,-1.3299790620803833,11.925518035888672
1713723965356790941,0.02876213937997818,0.06711165606975555,-0.03621898964047432,0.15322890877723694,-1.9488801956176758,10.904391288757324
1713723965366790941,0.07350324839353561,0.034088462591171265,-0.002130528911948204,-0.811634361743927,-1.4903905391693115,8.92917537689209
1713723965376790941,0.18748654425144196,0.022370552644133568,0.012783173471689224,-0.4668693244457245,0.264559268951416,8.508993148803711
1713723965385790941,0.20985709130764008,0.027696875855326653,-0.01065264455974102,0.03950432687997818,1.335964560508728,8.900444984436035
1713723965395790941,0.1203748807311058,0.03834952041506767,0.0,-0.07661445438861847,1.115697979927063,8.827421188354492
1713723965404790941,-0.07137271761894226,0.024501081556081772,-0.006391586735844612,0.05506663769483566,0.711077868938446,9.976638793945312
1713723965415790941,-0.21624867618083954,-0.007456851191818714,-0.011717909015715122,0.1628057062625885,0.5315127968788147,10.415974617004395
1713723965424790941,-0.24820661544799805,-0.029827404767274857,0.002130528911948204,-0.07781155407428741,-0.021547814831137657,10.035296440124512
1713723965433790941,-0.1257012039422989,-0.06604639440774918,-0.008522115647792816,-0.8667010068893433,-1.0690110921859741,8.7268648147583
1713723965443790941,-0.06391586363315582,-0.044741105288267136,0.027696875855326653,-0.3411737382411957,-1.1540051698684692,8.803479194641113
1713723965452790941,0.05432848632335663,-0.002130528911948204,-0.013848437927663326,0.9241618514060974,-0.7182605266571045,10.882843971252441
1713723965462790941,0.00532632227987051,0.0788295716047287,-0.011717909015715122,1.0295066833496094,-0.8415618538856506,11.853692054748535
1713723965472790941,0.003195793367922306,0.07137271761894226,-0.047936901450157166,0.03950432687997818,-1.1121066808700562,12.375628471374512
1713723965481790941,0.05645901337265968,-0.004261057823896408,-0.01810949482023716,-0.9828197956085205,-1.304839849472046,10.235212326049805
1713723965491790941,0.092678003013134,-0.04580637067556381,0.00532632227987051,-0.3794809579849243,-0.3543418347835541,8.944737434387207
1713723965500790941,0.21198762953281403,-0.022370552644133568,-0.024501081556081772,0.34835633635520935,0.6236895322799683,8.08043098449707
1713723965510790941,0.15978966653347015,0.04048004746437073,-0.01810949482023716,0.31364041566848755,0.8595184087753296,7.50582218170166
1713723965520790941,0.041545312851667404,0.06924218684434891,-0.024501081556081772,0.02274491637945175,1.1875240802764893,9.336189270019531
1713723965530790941,-0.10865697264671326,0.06391586363315582,-0.02130528911948204,-0.24181437492370605,0.912190854549408,10.098742485046387
1713723965539790941,-0.2514024078845978,0.02876213937997818,-0.009587380103766918,-0.27653029561042786,0.3998316824436188,10.135852813720703
1713723965548790941,-0.21092236042022705,-0.0511326938867569,-0.009587380103766918,-0.7026981711387634,-0.4405331015586853,9.70010757446289
1713723965558790941,-0.13209278881549835,-0.11185276508331299,0.02130528911948204,-0.9804255962371826,-1.0905588865280151,8.779537200927734
1713723965567790941,-0.019174760207533836,-0.09054747968912125,0.022370552644133568,0.15921440720558167,-0.42018237709999084,9.759963035583496
1713723965577790941,0.05326322093605995,0.003195793367922306,-0.009587380103766918,1.0678139925003052,-0.20111294090747833,11.240777015686035
1713723965587790941,0.003195793367922306,0.10013485699892044,-0.022370552644133568,0.9133879542350769,-1.0055646896362305,11.328165054321289
1713723965596790941,-0.026631610468029976,0.1065264418721199,-0.04048004746437073,-0.002394201699644327,-1.525106430053711,12.084733009338379
1713723965606790941,0.04687163606286049,0.002130528911948204,-0.022370552644133568,-0.9528922438621521,-1.7477672100067139,10.56800651550293
1713723965615790941,0.07563377171754837,-0.04367584362626076,0.020240023732185364,-0.4321534037590027,-0.7649474143981934,9.414000511169434
1713723965625790941,0.2183792144060135,-0.026631610468029976,-0.02130528911948204,0.33279404044151306,0.36152446269989014,8.256404876708984
1713723965634790941,0.16298545897006989,0.03941478580236435,-0.008522115647792816,0.45250412821769714,0.6979097723960876,7.419631004333496
1713723965645790941,0.05645901337265968,0.07350324839353561,-0.022370552644133568,0.17717091739177704,1.2318167686462402,9.361328125
1713723965653790941,-0.07776430249214172,0.08096009492874146,-0.02556634694337845,-0.19033902883529663,1.1504138708114624,9.643844604492188
1713723965663790941,-0.22477079927921295,0.052197955548763275,-0.017044231295585632,-0.29448679089546204,0.6859387755393982,9.672574996948242
1713723965674415048,-0.23968449234962463,-0.019174760207533836,-0.015978965908288956,-0.8798691034317017,0.061052143573760986,10.078392028808594
1713723965683415048,-0.14594122767448425,-0.11078750342130661,0.007456851191818714,-1.3658920526504517,-0.970848798751831,9.534908294677734
1713723965693415048,-0.0884169489145279,-0.11824434995651245,0.02556634694337845,-0.20350714027881622,-1.01753568649292,10.303446769714355
1713723965702415048,0.041545312851667404,-0.04687163606286049,-0.01065264455974102,1.0307037830352783,-0.7793126106262207,10.595539093017578
1713723965713415048,-0.003195793367922306,0.06604639440774918,-0.019174760207533836,1.1480196714401245,-1.0055646896362305,10.674548149108887
1713723965722415048,0.006391586735844612,0.1065264418721199,-0.047936901450157166,0.2968810200691223,-0.9744400978088379,11.990161895751953
1713723965731415048,0.06711165606975555,0.05432848632335663,-0.02876213937997818,-0.7625532150268555,-1.304839849472046,10.36569595336914
1713723965741415048,0.07456851005554199,0.00532632227987051,0.007456851191818714,-0.49320554733276367,-0.790086567401886,9.471461296081543
1713723965751415048,0.1672465205192566,-0.011717909015715122,-0.020240023732185364,0.02753331884741783,0.16879121959209442,8.538920402526855
1713723965760415048,0.1065264418721199,0.011717909015715122,-0.008522115647792816,0.10773907601833344,0.6260837316513062,7.978676795959473
1713723965770415048,0.029827404767274857,0.012783173471689224,-0.024501081556081772,-0.08738835901021957,1.0079588890075684,9.276334762573242
1713723965779415048,-0.07456851005554199,0.014913702383637428,-0.022370552644133568,-0.3387795388698578,0.9026139974594116,9.32661247253418
1713723965789415048,-0.16937704384326935,0.0,-0.023435818031430244,-0.2861070930957794,0.6428431272506714,9.405621528625488
1713723965799415048,-0.19813919067382812,-0.023435818031430244,-0.01810949482023716,-0.2454056739807129,0.243011474609375,9.739612579345703
1713723965808415048,-0.12463594228029251,-0.0649811327457428,-0.017044231295585632,-0.834379255771637,-0.7481880187988281,9.704895973205566
1713723965818415048,-0.10120011866092682,-0.08628641813993454,0.001065264455974102,-0.6476315259933472,-1.2844891548156738,10.472237586975098
1713723965828415048,-0.037284255027770996,-0.06391586363315582,-0.008522115647792816,0.6739677786827087,-1.216254472732544,11.669339179992676
1713723965837415048,-0.01065264455974102,-0.01810949482023716,-0.03195793181657791,1.0115501880645752,-1.5382745265960693,12.38879680633545
1713723965846415048,0.05752427875995636,0.00532632227987051,-0.027696875855326653,0.4692635238170624,-1.8722656965255737,11.279084205627441
1713723965856415048,0.10865697264671326,0.03834952041506767,-0.009587380103766918,0.30885201692581177,-1.2677297592163086,9.566032409667969
1713723965865415048,0.2183792144060135,0.08735168725252151,-0.030892668291926384,0.2561795711517334,-0.10773907601833344,8.458714485168457
1713723965875415048,0.2087918221950531,0.1203748807311058,-0.029827404767274857,-0.11372458189725876,0.7254431247711182,7.861361026763916
1713723965885415048,0.14700649678707123,0.08202536404132843,-0.026631610468029976,-0.5602431893348694,1.179144263267517,8.544905662536621
1713723965894415048,0.015978965908288956,0.01065264455974102,-0.019174760207533836,-0.8523358106613159,1.1563993692398071,9.136273384094238
1713723965905415048,-0.1395496428012848,-0.06072007119655609,-0.014913702383637428,-0.7398083209991455,0.9469067454338074,9.824606895446777
1713723965913415048,-0.2364886999130249,-0.09480853378772736,-0.008522115647792816,-0.4129997789859772,0.6392518281936646,9.646238327026367
1713723965923415048,-0.24501082301139832,-0.08415588736534119,-0.006391586735844612,0.05626373738050461,0.05746084079146385,9.425971984863281
1713723965933415048,-0.13635385036468506,-0.07350324839353561,-0.015978965908288956,-0.33039984107017517,-0.9481038451194763,9.32541561126709
1713723965942415048,-0.0788295716047287,-0.04367584362626076,-0.006391586735844612,-0.2849099934101105,-1.5646108388900757,10.3333740234375
1713723965952415048,-0.008522115647792816,-0.006391586735844612,-0.019174760207533836,0.7769184112548828,-1.5514426231384277,12.559982299804688
1713723965961415048,0.041545312851667404,0.013848437927663326,-0.03621898964047432,0.6739677786827087,-1.8160020112991333,12.782642364501953
1713723965971415048,0.07456851005554199,0.006391586735844612,-0.019174760207533836,0.08259996026754379,-1.9381062984466553,10.992977142333984
1713723965981415048,0.11824434995651245,0.022370552644133568,0.0,0.14724339544773102,-0.9612719416618347,9.714472770690918
1713723965990415048,0.2183792144060135,0.07989483326673508,-0.023435818031430244,0.14844051003456116,0.2753331959247589,8.335412979125977
1713723966000415048,0.2130528837442398,0.11824434995651245,-0.023435818031430244,-0.16879121959209442,0.9157821536064148,7.205349922180176
1713723966010415048,0.14168016612529755,0.07456851005554199,-0.02130528911948204,-0.5662286877632141,1.3682862520217896,7.936778545379639
1713723966019415048,0.011717909015715122,-0.00532632227987051,-0.014913702383637428,-0.9169792532920837,1.523909330368042,8.898050308227539
1713723966029415048,-0.14700649678707123,-0.07456851005554199,-0.009587380103766918,-0.7829039692878723,1.2533645629882812,9.548076629638672
1713723966038415048,-0.26205503940582275,-0.10759171098470688,0.001065264455974102,-0.24420857429504395,0.7864952683448792,9.5624418258667
1713723966047415048,-0.29507824778556824,-0.08522115647792816,0.00532632227987051,0.2609679698944092,0.07541735470294952,9.848548889160156
1713723966057415048,-0.1619201898574829,-0.07243797928094864,-0.017044231295585632,-0.16879121959209442,-1.502361536026001,10.195707321166992
1713723966067415048,-0.07137271761894226,-0.06817692518234253,0.006391586735844612,-0.5410895943641663,-2.5318682193756104,11.130643844604492
1713723966077415048,0.02130528911948204,-0.04048004746437073,0.001065264455974102,0.7074865698814392,-1.9955670833587646,12.781445503234863
1713723966086415048,0.0788295716047287,0.023435818031430244,-0.027696875855326653,1.5526397228240967,-1.40180504322052,12.394782066345215
1713723966095415048,0.1203748807311058,0.0788295716047287,-0.04261057823896408,0.6452373266220093,-1.3874398469924927,10.39083480834961
1713723966105415048,0.14594122767448425,0.09480853378772736,-0.020240023732185364,-0.333991140127182,-1.01753568649292,8.737639427185059
1713723966115415048,0.2034655064344406,0.08628641813993454,-0.023435818031430244,-0.5386953949928284,0.1975216418504715,8.26358699798584
1713723966124415048,0.19387812912464142,0.06072007119655609,-0.020240023732185364,-0.477643221616745,1.1743558645248413,8.32104778289795
1713723966134415048,0.1257012039422989,-0.001065264455974102,-0.013848437927663326,-0.6105214357376099,1.3503297567367554,8.063671112060547
1713723966143415048,-0.019174760207533836,-0.05432848632335663,-0.002130528911948204,-0.6536170244216919,1.315613865852356,8.84058952331543
1713723966153415048,-0.14913702011108398,-0.08628641813993454,-0.008522115647792816,-0.33039984107017517,1.113303780555725,9.66539192199707
1713723966162415048,-0.24288028478622437,-0.06817692518234253,0.004261057823896408,0.08499415963888168,0.50876784324646,9.32541561126709
1713723966172415048,-0.258859246969223,-0.030892668291926384,-0.01065264455974102,0.35913026332855225,-0.3172317147254944,10.540472984313965
1713723966182415048,-0.10120011866092682,-0.05006742849946022,-0.022370552644133568,-0.711077868938446,-1.9021931886672974,11.257535934448242
1713723966192415048,-0.041545312851667404,-0.07456851005554199,0.014913702383637428,-0.7948749661445618,-2.7509377002716064,11.21563720703125
1713723966201415048,0.06711165606975555,-0.05752427875995636,-0.003195793367922306,0.9768342971801758,-1.8914192914962769,12.105083465576172
1713723966210415048,0.09161274135112762,0.030892668291926384,-0.019174760207533836,1.5286977291107178,-0.9516951441764832,11.30182933807373
1713723966220415048,0.11291802674531937,0.11078750342130661,-0.03195793181657791,0.729034423828125,-0.5315127968788147,9.667786598205566
1713723966230415048,0.15659387409687042,0.13848437368869781,-0.026631610468029976,-0.6955155730247498,-0.11133037507534027,8.311470985412598
1713723966239415048,0.1672465205192566,0.1022653877735138,-0.013848437927663326,-1.0019733905792236,0.6165069341659546,8.038532257080078
1713723966249415048,0.15978966653347015,0.004261057823896408,-0.004261057823896408,-0.5638344883918762,1.0989385843276978,8.303091049194336
1713723966258415048,0.047936901450157166,-0.07776430249214172,0.003195793367922306,-0.5171475410461426,1.1839326620101929,8.778340339660645
1713723966268415048,-0.09054747968912125,-0.11504855751991272,0.002130528911948204,-0.16879121959209442,0.9624690413475037,9.5995512008667
1713723966277415048,-0.21411815285682678,-0.09906959533691406,-0.001065264455974102,0.32680851221084595,0.6117185354232788,9.81024169921875
1713723966287415048,-0.26205503940582275,-0.030892668291926384,-0.001065264455974102,0.5147533416748047,0.016759412363171577,9.581595420837402
1713723966297415048,-0.13848437368869781,0.0,-0.027696875855326653,-0.033518824726343155,-1.1049240827560425,9.70010757446289
1713723966306415048,-0.041545312851667404,-0.024501081556081772,-0.006391586735844612,-0.7194576263427734,-1.9249380826950073,10.450690269470215
1713723966317415048,0.04261057823896408,-0.034088462591171265,0.00532632227987051,-0.09217676520347595,-1.3204022645950317,12.190077781677246
1713723966325415048,0.10759171098470688,-0.008522115647792816,-0.027696875855326653,0.8846575021743774,-0.7996633648872375,11.91235065460205
1713723966335415048,0.05326322093605995,0.0511326938867569,-0.02876213937997818,0.9085995554924011,-0.8307879567146301,9.75397777557373
1713723966345415048,0.03195793181657791,0.08202536404132843,-0.02556634694337845,0.3148375153541565,-0.25019407272338867,9.321824073791504
1713723966354415048,0.07243797928094864,0.07563377171754837,-0.02556634694337845,-0.5135562419891357,0.13407529890537262,8.565256118774414
1713723966364415048,0.07989483326673508,0.05326322093605995,-0.003195793367922306,-0.6476315259933472,0.38546645641326904,8.433575630187988
1713723966374415048,0.07030745595693588,-0.009587380103766918,-0.013848437927663326,-0.608127236366272,0.5985504388809204,8.951919555664062
1713723966383415048,-0.011717909015715122,-0.058589544147253036,0.002130528911948204,-0.6224924325942993,0.4692635238170624,9.591172218322754
1713723966393415048,-0.10759171098470688,-0.092678003013134,-0.009587380103766918,-0.23702596127986908,0.23582886159420013,10.339360237121582
1713723966402415048,-0.16405072808265686,-0.08202536404132843,-0.001065264455974102,0.2801215946674347,-0.04429272934794426,9.835380554199219
1713723966412415048,-0.148071750998497,-0.041545312851667404,-0.01065264455974102,0.325611412525177,-0.32202011346817017,9.84735107421875
1713723966422415048,-0.04261057823896408,-0.01065264455974102,-0.023435818031430244,-0.15682020783424377,-0.9445125460624695,9.649829864501953
1713723966431415048,0.009587380103766918,0.019174760207533836,-0.007456851191818714,-0.023942016065120697,-1.2198457717895508,10.308235168457031
1713723966441415048,0.06604639440774918,0.029827404767274857,-0.02556634694337845,0.50876784324646,-0.8427590131759644,11.17972469329834
1713723966450415048,0.027696875855326653,0.030892668291926384,-0.027696875855326653,0.325611412525177,-0.6727706789970398,11.2467622756958
1713723966460415048,0.03302319720387459,-0.008522115647792816,-0.02556634694337845,-0.30286651849746704,-0.7936778664588928,10.498574256896973
1713723966469415048,0.019174760207533836,-0.03515372797846794,0.002130528911948204,-0.2106897532939911,-0.5542576909065247,9.169792175292969
1713723966479415048,0.0788295716047287,-0.027696875855326653,-0.009587380103766918,0.10654197633266449,-0.0071826050989329815,8.611943244934082
1713723966489415048,0.07669904083013535,0.019174760207533836,-0.012783173471689224,0.11252747476100922,0.3998316824436188,8.588001251220703
1713723966498415048,0.047936901450157166,0.037284255027770996,-0.017044231295585632,0.009576806798577309,0.568622887134552,9.229647636413574
1713723966508415048,-0.022370552644133568,0.03195793181657791,-0.015978965908288956,-0.1951274424791336,0.3902548849582672,9.712079048156738
1713723966517415048,-0.09693906456232071,0.00532632227987051,-0.013848437927663326,-0.22864626348018646,0.23582886159420013,10.042478561401367
1713723966527415048,-0.11504855751991272,-0.034088462591171265,-0.00532632227987051,-0.3208230137825012,-0.05027823522686958,9.716867446899414
1713723966536415048,-0.08415588736534119,-0.06604639440774918,0.003195793367922306,-0.3447650372982025,-0.3890577554702759,9.246406555175781
1713723966546415048,-0.052197955548763275,-0.047936901450157166,0.004261057823896408,0.021547814831137657,-0.36750996112823486,9.655815124511719
1713723966556415048,-0.014913702383637428,-0.002130528911948204,-0.013848437927663326,0.41778817772865295,-0.5099649429321289,10.629057884216309
1713723966566415048,-0.001065264455974102,0.012783173471689224,-0.026631610468029976,0.34596213698387146,-1.238999366760254,11.550826072692871
1713723966575415048,0.017044231295585632,-0.03195793181657791,-0.02130528911948204,-0.15921440720558167,-1.8531121015548706,11.556811332702637
1713723966584415048,0.03621898964047432,-0.05326322093605995,0.003195793367922306,0.15083470940589905,-1.404199242591858,10.699687004089355
1713723966594415048,0.12250541150569916,-0.015978965908288956,-0.015978965908288956,0.6572083830833435,-0.39384618401527405,9.17817211151123
1713723966603415048,0.14487595856189728,0.07563377171754837,-0.026631610468029976,0.44412440061569214,0.3519476354122162,8.198943138122559
1713723966613415048,0.14168016612529755,0.11824434995651245,-0.034088462591171265,0.1604115068912506,0.8248024582862854,8.362946510314941
1713723966623415048,0.07669904083013535,0.0884169489145279,-0.026631610468029976,-0.363918662071228,0.9289502501487732,8.753201484680176
1713723966632415048,-0.03515372797846794,0.017044231295585632,-0.019174760207533836,-0.7613561153411865,0.7745242118835449,9.651026725769043
1713723966642415048,-0.14594122767448425,-0.05752427875995636,-0.007456851191818714,-0.6272808313369751,0.5159504413604736,10.030508041381836
1713723966651415048,-0.2034655064344406,-0.09693906456232071,0.003195793367922306,-0.2298433631658554,0.07062894850969315,9.72285270690918
1713723966661415048,-0.1438107043504715,-0.09906959533691406,-0.006391586735844612,-0.031124621629714966,-0.6548141837120056,9.251194953918457
1713723966670415048,-0.0788295716047287,-0.06391586363315582,-0.001065264455974102,0.0011971008498221636,-1.1276689767837524,9.877279281616211
1713723966681415048,-0.004261057823896408,-0.002130528911948204,-0.007456851191818714,0.5339069962501526,-0.9648632407188416,11.403582572937012
1713723966690415048,0.04367584362626076,0.05645901337265968,-0.027696875855326653,0.9062053561210632,-1.0666168928146362,12.109871864318848
1713723966699415048,0.07669904083013535,0.05752427875995636,-0.04048004746437073,0.16639702022075653,-1.624465823173523,11.309011459350586
1713723966709415048,0.08309062570333481,0.03195793181657791,-0.008522115647792816,-0.25737667083740234,-1.4413094520568848,9.859322547912598
1713723966718415048,0.13848437368869781,0.014913702383637428,-0.014913702383637428,-0.06344634294509888,-0.29448679089546204,8.99621295928955
1713723966728415048,0.15126754343509674,0.04048004746437073,-0.027696875855326653,-0.02753331884741783,0.7182605266571045,8.53413200378418
1713723966738415048,0.12783172726631165,0.03941478580236435,-0.030892668291926384,-0.19033902883529663,1.0103530883789062,8.052897453308105
1713723966748415048,0.037284255027770996,0.007456851191818714,-0.026631610468029976,-0.5171475410461426,1.016338586807251,8.361749649047852
1713723966757415048,-0.0788295716047287,-0.034088462591171265,-0.02876213937997818,-0.5339069962501526,0.9792284965515137,9.496601104736328
1713723966767415048,-0.17896442115306854,-0.06178533658385277,-0.020240023732185364,-0.1999158412218094,0.7386112213134766,10.011354446411133
1713723966776415048,-0.21944446861743927,-0.06072007119655609,-0.011717909015715122,0.04189852997660637,0.06584054231643677,9.446322441101074
1713723966786415048,-0.15446333587169647,-0.05432848632335663,-0.015978965908288956,-0.05985504016280174,-0.851138710975647,9.510966300964355
1713723966795415048,-0.0788295716047287,-0.05752427875995636,-0.006391586735844612,-0.3770867586135864,-1.5526397228240967,10.969035148620605
1713723966805415048,-0.009587380103766918,-0.03834952041506767,0.002130528911948204,0.15682020783424377,-1.6136919260025024,12.326547622680664
1713723966815415048,0.049002163112163544,0.002130528911948204,-0.022370552644133568,0.9038110971450806,-1.4401123523712158,12.394782066345215
1713723966824415048,0.092678003013134,0.034088462591171265,-0.03515372797846794,0.529118537902832,-1.5562310218811035,10.687716484069824
1713723966834415048,0.11185276508331299,0.0511326938867569,-0.013848437927663326,0.11013327538967133,-1.0845733880996704,9.066842079162598
1713723966843415048,0.18002969026565552,0.06285060197114944,-0.027696875855326653,-0.15083470940589905,0.047884032130241394,8.3892822265625
1713723966853415048,0.1715075671672821,0.06817692518234253,-0.02876213937997818,-0.4297592043876648,0.9133879542350769,8.289923667907715
1713723966862415048,0.11185276508331299,0.026631610468029976,-0.022370552644133568,-0.5710170865058899,1.1671732664108276,8.51258373260498
1713723966872415048,-0.017044231295585632,-0.03515372797846794,-0.014913702383637428,-0.569819986820221,1.0546457767486572,9.117119789123535
1713723966882415048,-0.14594122767448425,-0.09054747968912125,-0.014913702383637428,-0.2753331959247589,0.8152256608009338,9.718064308166504
1713723966891415048,-0.23009711503982544,-0.10120011866092682,-0.00532632227987051,0.152031809091568,0.4752490222454071,9.513360023498535
1713723966901415048,-0.23116238415241241,-0.0649811327457428,-0.00532632227987051,0.4836287498474121,0.009576806798577309,9.673771858215332
1713723966910415048,-0.10439591109752655,-0.030892668291926384,-0.020240023732185364,-0.23702596127986908,-1.157596468925476,9.917980194091797
1713723966920415048,-0.03941478580236435,-0.017044231295585632,-0.00532632227987051,-0.5183446407318115,-2.005143880844116,10.764330863952637
1713723966930415048,0.015978965908288956,-0.008522115647792816,-0.011717909015715122,0.5650315880775452,-1.7836802005767822,12.5156888961792
1713723966939415048,0.055393751710653305,-0.002130528911948204,-0.029827404767274857,0.7625532150268555,-1.5981296300888062,12.588712692260742
1713723966949415048,0.0788295716047287,-0.00532632227987051,-0.020240023732185364,0.15442600846290588,-1.4963760375976562,10.652999877929688
1713723966958415048,0.11930961906909943,0.020240023732185364,-0.007456851191818714,-0.02274491637945175,-0.6488286256790161,9.139864921569824
1713723966968415048,0.2130528837442398,0.06604639440774918,-0.02876213937997818,0.10295066982507706,0.416591078042984,7.825448036193848
1713723966977415048,0.20133498311042786,0.08202536404132843,-0.023435818031430244,-0.0933738648891449,1.0283095836639404,7.274781703948975
1713723966987415048,0.12357067316770554,0.037284255027770996,-0.01810949482023716,-0.6033388376235962,1.45806884765625,8.3306245803833
1713723966997415048,-0.022370552644133568,-0.029827404767274857,-0.01065264455974102,-0.7565677165985107,1.3970166444778442,9.348160743713379
1713723967006415048,-0.18429075181484222,-0.09054747968912125,-0.004261057823896408,-0.3974374830722809,0.9445125460624695,9.765948295593262
1713723967016415048,-0.29401299357414246,-0.10546118021011353,0.004261057823896408,0.06584054231643677,0.46806642413139343,9.695319175720215
1713723967025415048,-0.26205503940582275,-0.08309062570333481,-0.002130528911948204,-0.11133037507534027,-0.21787235140800476,10.26274585723877
1713723967035415048,-0.11078750342130661,-0.08522115647792816,-0.009587380103766918,-0.545877993106842,-1.5969325304031372,10.311826705932617
1713723967045415048,-0.03195793181657791,-0.05752427875995636,0.014913702383637428,0.2992752194404602,-2.093729257583618,10.981005668640137
1713723967054415048,0.08415588736534119,-0.012783173471689224,-0.019174760207533836,1.400607943534851,-1.5861586332321167,11.432312965393066
1713723967064415048,0.03834952041506767,0.0649811327457428,-0.02876213937997818,1.2018892765045166,-1.138442873954773,11.54244613647461
1713723967073415048,0.09587380290031433,0.07243797928094864,-0.04580637067556381,0.19153612852096558,-1.0115501880645752,10.787075996398926
1713723967083415048,0.09374327212572098,0.04367584362626076,-0.011717909015715122,-0.5949591398239136,-0.8092401623725891,8.894458770751953
1713723967092415048,0.15978966653347015,0.007456851191818714,-0.013848437927663326,-0.456095427274704,0.23343466222286224,8.459911346435547
1713723967102415048,0.14594122767448425,-0.01065264455974102,-0.01065264455974102,-0.05985504016280174,1.091755986213684,8.391676902770996
1713723967112415048,0.08628641813993454,-0.03195793181657791,-0.01065264455974102,-0.13407529890537262,1.2078747749328613,8.310274124145508
1713723967121415048,-0.04048004746437073,-0.034088462591171265,-0.009587380103766918,-0.10295066982507706,1.0438718795776367,8.795100212097168
1713723967131415048,-0.1619201898574829,-0.034088462591171265,-0.015978965908288956,0.15322890877723694,0.8810662031173706,9.646238327026367
1713723967140415048,-0.23542344570159912,-0.015978965908288956,-0.008522115647792816,0.181959331035614,0.4321534037590027,9.5995512008667
1713723967150415048,-0.19707392156124115,-0.015978965908288956,-0.022370552644133568,-0.4118026793003082,-0.5015852451324463,10.11909294128418
1713723967160415048,-0.09161274135112762,-0.07137271761894226,-0.012783173471689224,-1.0438718795776367,-1.699883222579956,11.12226390838623
1713723967169415048,-0.03941478580236435,-0.09800432622432709,0.014913702383637428,-0.12210428714752197,-1.9476830959320068,12.05959415435791
1713723967179415048,0.049002163112163544,-0.07669904083013535,-0.01810949482023716,1.2054805755615234,-1.5526397228240967,11.530475616455078
1713723967188415048,0.027696875855326653,0.012783173471689224,-0.020240023732185364,1.3551181554794312,-1.0821791887283325,10.24000072479248
1713723967198415048,0.07243797928094864,0.08628641813993454,-0.037284255027770996,0.6584054827690125,-0.5398924946784973,9.35773754119873
1713723967207415048,0.11398329585790634,0.11717908829450607,-0.026631610468029976,-0.0933738648891449,-0.09696516394615173,8.540117263793945
1713723967217415048,0.1438107043504715,0.08948221057653427,-0.02130528911948204,-0.31124621629714966,0.4752490222454071,8.506598472595215
1713723967227415048,0.10972223430871964,0.014913702383637428,-0.012783173471689224,-0.5003881454467773,0.8200140595436096,8.634688377380371
1713723967237415048,0.00532632227987051,-0.06817692518234253,-0.004261057823896408,-0.6344634294509888,0.8248024582862854,9.424775123596191
1713723967246415048,-0.1203748807311058,-0.11504855751991272,-0.003195793367922306,-0.29209259152412415,0.5279214382171631,10.235212326049805
1713723967255415048,-0.20772656798362732,-0.10439591109752655,-0.008522115647792816,0.2322375625371933,0.1867477297782898,9.981427192687988
1713723967265415048,-0.21092236042022705,-0.05006742849946022,-0.012783173471689224,0.5494692921638489,-0.2238578498363495,10.11909294128418
1713723967274415048,-0.07563377171754837,-0.026631610468029976,-0.03195793181657791,-0.30047231912612915,-1.192312479019165,9.531316757202148
1713723967284415048,-0.02130528911948204,-0.004261057823896408,-0.00532632227987051,-0.5734112858772278,-1.6304513216018677,9.861716270446777
1713723967294415048,0.05752427875995636,0.00532632227987051,-0.020240023732185364,0.6248866319656372,-1.1743558645248413,11.772289276123047
1713723967303415048,0.02556634694337845,0.024501081556081772,-0.024501081556081772,1.0235211849212646,-0.8056488633155823,11.947066307067871
1713723967313415048,0.04687163606286049,0.014913702383637428,-0.03195793181657791,0.17717091739177704,-0.7398083209991455,10.065223693847656
1713723967322415048,0.04580637067556381,0.003195793367922306,-0.00532632227987051,-0.20350714027881622,-0.35075053572654724,8.26239013671875
1713723967332415048,0.11930961906909943,-0.00532632227987051,-0.014913702383637428,0.104147769510746,0.3734954595565796,7.692569732666016
1713723967342415048,0.09054747968912125,0.009587380103766918,-0.01065264455974102,0.05746084079146385,0.8427590131759644,8.638279914855957
1713723967351415048,0.01810949482023716,0.003195793367922306,-0.013848437927663326,-0.05506663769483566,0.7589619159698486,9.983820915222168
1713723967361415048,-0.12144014239311218,-0.01065264455974102,-0.01065264455974102,-0.04429272934794426,0.06823474913835526,10.776301383972168
1713723967370415048,-0.2130528837442398,-0.03834952041506767,-0.013848437927663326,0.13527239859104156,-0.5434837937355042,11.926715850830078
1713723967380415048,-0.09480853378772736,-0.09587380290031433,-0.013848437927663326,-0.8319850564002991,-1.5334861278533936,9.75397777557373
1713723967389415048,-0.04687163606286049,-0.09161274135112762,0.02556634694337845,-0.6212953329086304,-1.4089876413345337,8.232462882995605
1713723967399415048,0.14913702011108398,-0.030892668291926384,-0.01065264455974102,0.8595184087753296,-0.3076549172401428,8.576030731201172
1713723967409415048,0.10013485699892044,0.07456851005554199,-0.007456851191818714,1.0845733880996704,0.20709843933582306,10.562020301818848
1713723967419415048,0.030892668291926384,0.11717908829450607,-0.027696875855326653,0.7577648162841797,0.014365210197865963,12.02846908569336
1713723967428415048,-0.08309062570333481,0.092678003013134,-0.019174760207533836,0.23822306096553802,-0.49799394607543945,11.197681427001953
1713723967437415048,-0.030892668291926384,-0.04261057823896408,-0.019174760207533836,-1.0019733905792236,-1.0785878896713257,9.387664794921875
1713723967447415048,-0.026631610468029976,-0.11504855751991272,0.02130528911948204,-0.9481038451194763,-0.7003039717674255,8.14148235321045
1713723967457415048,0.1161138266324997,-0.10759171098470688,-0.01065264455974102,0.5889735817909241,0.25737667083740234,8.010998725891113
1713723967466415048,0.06817692518234253,-0.017044231295585632,-0.014913702383637428,1.1192892789840698,0.4704606235027313,8.942342758178711
1713723967476415048,-0.022370552644133568,0.06391586363315582,-0.029827404767274857,0.9002197980880737,0.43095630407333374,11.415553092956543
1713723967485415048,-0.13848437368869781,0.11185276508331299,-0.03302319720387459,0.26336216926574707,-0.2609679698944092,11.473014831542969
1713723967495415048,-0.08096009492874146,0.027696875855326653,-0.037284255027770996,-0.8762778043746948,-1.3204022645950317,10.087968826293945
1713723967505415048,-0.04048004746437073,-0.07456851005554199,0.012783173471689224,-1.5682021379470825,-1.3754688501358032,8.287528991699219
1713723967514415048,0.11291802674531937,-0.10013485699892044,0.013848437927663326,-0.3579331338405609,0.08619125932455063,8.571242332458496
1713723967524415048,0.13315805792808533,-0.04048004746437073,-0.001065264455974102,0.8152256608009338,0.9026139974594116,10.202890396118164
1713723967533415048,0.0511326938867569,0.041545312851667404,-0.01065264455974102,0.833182156085968,0.3315969407558441,10.582371711730957
1713723967543415048,-0.1203748807311058,0.09054747968912125,-0.012783173471689224,0.7074865698814392,-0.3902548849582672,11.039664268493652
1713723967552415048,-0.14594122767448425,0.03515372797846794,-0.034088462591171265,-0.34356793761253357,-0.954089343547821,11.228805541992188
1713723967562415048,-0.041545312851667404,-0.092678003013134,0.0,-1.1216834783554077,-1.501164436340332,8.344989776611328
1713723967572415048,0.029827404767274857,-0.12889699637889862,0.01810949482023716,0.1280897855758667,-0.6368576288223267,8.63708209991455
1713723967581415048,0.18642127513885498,-0.08202536404132843,-0.023435818031430244,1.0606313943862915,0.2561795711517334,9.53849983215332
1713723967591415048,0.1022653877735138,0.020240023732185364,-0.019174760207533836,1.0642226934432983,0.07781155407428741,9.496601104736328
1713723967601415048,-0.03195793181657791,0.09374327212572098,-0.026631610468029976,0.790086567401886,-0.1280897855758667,11.7232084274292
1713723967610415048,-0.15020228922367096,0.1299622654914856,-0.015978965908288956,0.10295066982507706,-0.40222588181495667,10.900799751281738
1713723967619415048,-0.0884169489145279,0.06178533658385277,-0.017044231295585632,-0.8595184087753296,-0.9816226959228516,9.154230117797852
1713723967629415048,-0.027696875855326653,-0.04367584362626076,0.014913702383637428,-1.5370774269104004,-0.910993754863739,7.882908821105957
1713723967639415048,0.1065264418721199,-0.07350324839353561,0.02876213937997818,-0.4824316203594208,0.3842693567276001,8.835801124572754
1713723967648415048,0.12889699637889862,-0.0511326938867569,0.006391586735844612,0.7410054206848145,0.8164227604866028,10.736797332763672
1713723967658415048,0.03195793181657791,0.015978965908288956,0.002130528911948204,0.894234299659729,0.019153613597154617,10.711658477783203
1713723967667415048,-0.12889699637889862,0.07030745595693588,-0.007456851191818714,0.812831461429596,-0.43694180250167847,10.891222953796387
1713723967677415048,-0.12676647305488586,0.05432848632335663,-0.023435818031430244,-0.06584054231643677,-0.7350199222564697,10.490194320678711
1713723967686415048,-0.01810949482023716,-0.03621898964047432,-0.002130528911948204,-0.9193734526634216,-1.2306196689605713,8.01339340209961
1713723967696415048,0.05965480953454971,-0.06391586363315582,0.015978965908288956,0.06464344263076782,-0.38786065578460693,8.609549522399902
1713723967706415048,0.1715075671672821,-0.04367584362626076,-0.011717909015715122,0.9840168952941895,0.39145198464393616,9.767146110534668
1713723967715415048,0.0649811327457428,0.024501081556081772,-0.011717909015715122,0.7685387134552002,0.15562310814857483,10.111910820007324
1713723967725415048,-0.09054747968912125,0.0788295716047287,-0.020240023732185364,0.5027823448181152,-0.22864626348018646,11.830947875976562
1713723967735415048,-0.17789916694164276,0.07989483326673508,-0.026631610468029976,-0.0071826050989329815,-0.7529764175415039,12.342109680175781
1713723967744415048,-0.034088462591171265,-0.034088462591171265,-0.015978965908288956,-1.3934253454208374,-1.7154455184936523,9.129091262817383
1713723967754415048,-0.00532632227987051,-0.08948221057653427,0.030892668291926384,-1.0414776802062988,-1.095347285270691,7.708132266998291
1713723967763415048,0.21518342196941376,-0.08522115647792816,-0.004261057823896408,0.6033388376235962,0.17238251864910126,8.198943138122559
1713723967773415048,0.11291802674531937,0.013848437927663326,0.006391586735844612,0.9085995554924011,0.456095427274704,9.865307807922363
1713723967783415048,0.006391586735844612,0.08309062570333481,-0.026631610468029976,0.8571242094039917,0.4405331015586853,11.966219902038574
1713723967792415048,-0.1438107043504715,0.11398329585790634,-0.013848437927663326,0.5422866940498352,0.02992752008140087,10.266336441040039
1713723967801415048,-0.10759171098470688,0.02876213937997818,-0.03302319720387459,-0.5482721924781799,-0.6416460275650024,9.453505516052246
1713723967811415048,-0.037284255027770996,-0.08309062570333481,0.001065264455974102,-1.2210428714752197,-0.93254154920578,7.77756404876709
1713723967821415048,0.08735168725252151,-0.11291802674531937,0.007456851191818714,0.05985504016280174,0.22864626348018646,8.265981674194336
1713723967830415048,0.13209278881549835,-0.06604639440774918,-0.019174760207533836,1.058237075805664,0.7876923680305481,10.319008827209473
1713723967840415048,0.04048004746437073,0.02876213937997818,-0.024501081556081772,1.0199298858642578,0.016759412363171577,11.206060409545898
1713723967850415048,-0.1257012039422989,0.10333064943552017,-0.029827404767274857,0.8295908570289612,-0.7793126106262207,11.81179428100586
1713723967859415048,-0.12783172726631165,0.07350324839353561,-0.044741105288267136,-0.5734112858772278,-1.404199242591858,10.981005668640137
1713723967869415048,0.003195793367922306,-0.052197955548763275,-0.007456851191818714,-1.7836802005767822,-1.868674397468567,8.160635948181152
1713723967878415048,0.09374327212572098,-0.09587380290031433,0.02130528911948204,-0.2908954918384552,-0.5805938839912415,9.069235801696777
1713723967888415048,0.27164241671562195,-0.08096009492874146,-0.023435818031430244,1.0079588890075684,0.6189011335372925,9.121908187866211
1713723967898415048,0.14700649678707123,0.002130528911948204,-0.009587380103766918,0.711077868938446,0.4728548228740692,9.101557731628418
1713723967908415048,-0.003195793367922306,0.06711165606975555,-0.023435818031430244,0.4944026470184326,0.07062894850969315,11.670536041259766
1713723967916415048,-0.17470337450504303,0.092678003013134,-0.01810949482023716,0.3363853394985199,-0.19273322820663452,10.35372543334961
1713723967926415048,-0.20133498311042786,0.05752427875995636,-0.026631610468029976,-0.49320554733276367,-0.21188685297966003,10.47822380065918
1713723967936415048,-0.052197955548763275,-0.06711165606975555,-0.024501081556081772,-1.0462660789489746,-0.9504980444908142,8.13908863067627
1713723967945415048,0.017044231295585632,-0.10759171098470688,0.02556634694337845,-0.06224924325942993,-0.5171475410461426,7.893682956695557
1713723967955415048,0.1715075671672821,-0.08735168725252151,-0.02876213937997818,0.727837324142456,0.243011474609375,9.915586471557617
1713723967965415048,0.05965480953454971,0.020240023732185364,-0.004261057823896408,0.8607155084609985,-0.14604629576206207,10.63743782043457
1713723967974415048,-0.07243797928094864,0.09800432622432709,-0.022370552644133568,0.8200140595436096,-0.4967968463897705,12.181697845458984
1713723967984415048,-0.13315805792808533,0.1161138266324997,-0.02130528911948204,-0.09457096457481384,-0.9504980444908142,12.658143997192383
1713723967993415048,0.03302319720387459,-0.014913702383637428,-0.02876213937997818,-1.5131354331970215,-2.1499931812286377,9.838972091674805
1713723968003415048,0.06285060197114944,-0.09800432622432709,0.02876213937997818,-0.8810662031173706,-1.6591817140579224,7.94755220413208
1713723968013415048,0.2780340313911438,-0.15020228922367096,-0.022370552644133568,0.363918662071228,-0.02513911761343479,8.615534782409668
1713723968022415048,0.20772656798362732,-0.07137271761894226,-0.017044231295585632,0.568622887134552,0.7613561153411865,8.746018409729004
1713723968032415048,0.11824434995651245,0.001065264455974102,-0.029827404767274857,0.7709329128265381,1.3634978532791138,9.198522567749023
1713723968041415048,-0.044741105288267136,0.06285060197114944,-0.009587380103766918,0.5662286877632141,1.301248550415039,9.361328125
1713723968051415048,-0.1619201898574829,0.08522115647792816,-0.013848437927663326,0.3172317147254944,1.1228805780410767,9.209296226501465
1713723968061415048,-0.24288028478622437,0.10013485699892044,0.00532632227987051,0.21547815203666687,0.7948749661445618,8.883685111999512
1713723968070415048,-0.15552860498428345,0.030892668291926384,-0.023435818031430244,-0.5817909836769104,-0.3687070608139038,9.475052833557129
1713723968080415048,-0.09906959533691406,-0.07137271761894226,0.022370552644133568,-1.0007762908935547,-1.4209586381912231,9.719261169433594
1713723968090415048,-0.03515372797846794,-0.10546118021011353,0.026631610468029976,0.0694318488240242,-1.2078747749328613,11.565191268920898
1713723968099415048,-0.009587380103766918,-0.041545312851667404,0.007456851191818714,0.8415618538856506,-1.2102689743041992,12.564770698547363
1713723968108415048,0.024501081556081772,0.027696875855326653,-0.015978965908288956,0.4213795065879822,-1.9045873880386353,12.064382553100586
1713723968118415048,0.12463594228029251,0.012783173471689224,-0.020240023732185364,-0.40701428055763245,-2.279279947280884,10.369287490844727
1713723968128415048,0.1757686287164688,-0.00532632227987051,0.011717909015715122,-0.07781155407428741,-0.9768342971801758,9.591172218322754
1713723968137415048,0.31318774819374084,-0.015978965908288956,-0.022370552644133568,0.5159504413604736,0.4991910457611084,8.370128631591797
1713723968147415048,0.23968449234962463,0.03302319720387459,-0.014913702383637428,0.4668693244457245,1.0235211849212646,7.219715118408203
1713723968156415048,0.11078750342130661,0.04687163606286049,-0.02876213937997818,0.45010989904403687,1.703474521636963,8.505401611328125
1713723968166415048,-0.05432848632335663,0.04261057823896408,-0.011717909015715122,0.20350714027881622,1.8279730081558228,8.829815864562988
1713723968174461944,-0.22157500684261322,0.022370552644133568,-0.01065264455974102,0.019153613597154617,1.3850456476211548,8.993818283081055
1713723968184461944,-0.3153182864189148,-0.003195793367922306,-0.00532632227987051,-0.047884032130241394,0.6631938815116882,9.097966194152832
1713723968194461944,-0.23542344570159912,-0.07030745595693588,-0.008522115647792816,-0.4213795065879822,-0.6572083830833435,9.714472770690918
1713723968203461944,-0.16298545897006989,-0.13635385036468506,0.01810949482023716,-0.447715699672699,-1.8064250946044922,10.939106941223145
1713723968213461944,-0.019174760207533836,-0.07137271761894226,0.03302319720387459,0.7170634269714355,-1.9692308902740479,12.108675003051758
1713723968222461944,0.03621898964047432,0.04687163606286049,-0.03195793181657791,1.382651448249817,-1.7549498081207275,13.52005672454834
1713723968232461944,0.16405072808265686,0.10439591109752655,-0.041545312851667404,0.24660277366638184,-2.05781626701355,11.870451927185059
1713723968242461944,0.18002969026565552,0.0788295716047287,-0.01810949482023716,-0.5434837937355042,-1.7166426181793213,8.999804496765137
1713723968251461944,0.2695119082927704,0.020240023732185364,-0.006391586735844612,-0.05027823522686958,-0.07422025501728058,8.063671112060547
1713723968261461944,0.23542344570159912,-0.009587380103766918,-0.020240023732185364,0.11851298063993454,1.3886369466781616,7.910442352294922
1713723968271461944,0.1576591432094574,-0.01065264455974102,-0.013848437927663326,0.028730420395731926,1.9009960889816284,7.726088523864746
1713723968280461944,-0.014913702383637428,-0.008522115647792816,-0.012783173471689224,0.2190694510936737,1.7693150043487549,8.164227485656738
1713723968289461944,-0.19281286001205444,0.002130528911948204,-0.015978965908288956,0.31364041566848755,1.3742717504501343,9.59715747833252
1713723968299461944,-0.31744879484176636,0.020240023732185364,-0.012783173471689224,0.3315969407558441,0.7350199222564697,9.949105262756348
1713723968309461944,-0.26738137006759644,-0.022370552644133568,-0.03195793181657791,-0.477643221616745,-0.4884171485900879,10.261548042297363
1713723968318461944,-0.13741911947727203,-0.12144014239311218,0.0,-0.8918401002883911,-1.745373010635376,9.81383228302002
1713723968328461944,-0.03941478580236435,-0.10546118021011353,0.02130528911948204,0.7182605266571045,-1.4125789403915405,10.716446876525879
1713723968338461944,0.08628641813993454,-0.001065264455974102,-0.020240023732185364,1.4137760400772095,-1.0115501880645752,11.63222885131836
1713723968347461944,0.03515372797846794,0.1395496428012848,-0.02130528911948204,0.7242460250854492,-1.282094955444336,11.411962509155273
1713723968356461944,0.08202536404132843,0.15872439742088318,-0.041545312851667404,-0.3926490843296051,-1.4975731372833252,11.836933135986328
1713723968366461944,0.1342233121395111,0.05006742849946022,-0.003195793367922306,-1.423352837562561,-1.4616601467132568,9.419986724853516
1713723968376461944,0.1715075671672821,-0.03302319720387459,0.034088462591171265,-0.8271966576576233,0.06464344263076782,8.769960403442383
1713723968385461944,0.23116238415241241,-0.08096009492874146,0.013848437927663326,-0.12330138683319092,1.2270283699035645,8.471882820129395
1713723968395461944,0.13102751970291138,-0.03941478580236435,0.02876213937997818,0.015562310814857483,1.2497732639312744,7.587224960327148
1713723968404461944,-0.004261057823896408,-0.004261057823896408,0.019174760207533836,0.061052143573760986,1.359906554222107,9.071630477905273
1713723968414461944,-0.1257012039422989,0.03834952041506767,0.044741105288267136,0.014365210197865963,1.0833762884140015,9.378087997436523
1713723968423461944,-0.23968449234962463,0.06391586363315582,0.03941478580236435,-0.0071826050989329815,0.6177040338516235,9.41639518737793
1713723968433461944,-0.2545982003211975,0.0649811327457428,0.03515372797846794,-0.03711012750864029,0.017956512048840523,10.60511589050293
1713723968443461944,-0.1161138266324997,-0.03834952041506767,0.03302319720387459,-1.1109095811843872,-1.3946224451065063,9.848548889160156
1713723968453461944,-0.11504855751991272,-0.10865697264671326,0.08735168725252151,-0.9181763529777527,-1.7262194156646729,10.384849548339844
1713723968462461944,0.024501081556081772,-0.08948221057653427,0.06072007119655609,0.7230489253997803,-1.2629413604736328,11.78785228729248
1713723968472461944,-0.02556634694337845,0.030892668291926384,0.05752427875995636,1.1563993692398071,-1.2641384601593018,12.079944610595703
1713723968481461944,0.09161274135112762,0.07137271761894226,0.015978965908288956,0.3280056416988373,-1.5334861278533936,11.21324348449707
1713723968491461944,0.13209278881549835,0.05326322093605995,0.05432848632335663,-0.5973533391952515,-1.5095441341400146,8.815450668334961
1713723968500461944,0.24501082301139832,0.007456851191818714,0.05432848632335663,-0.12928688526153564,-0.028730420395731926,8.488641738891602
1713723968510461944,0.23861923813819885,0.011717909015715122,0.04048004746437073,0.24899697303771973,1.3527239561080933,8.620323181152344
1713723968520461944,0.1533980816602707,0.02876213937997818,0.04367584362626076,0.05626373738050461,1.5945383310317993,8.202534675598145
1713723968529461944,-0.029827404767274857,0.03515372797846794,0.047936901450157166,-0.15322890877723694,1.4209586381912231,8.847772598266602
1713723968539461944,-0.18855179846286774,0.030892668291926384,0.0511326938867569,-0.24899697303771973,1.1743558645248413,9.809043884277344
1713723968548461944,-0.2886866629123688,0.014913702383637428,0.06391586363315582,-0.22744916379451752,0.38786065578460693,9.32421875
1713723968558461944,-0.21198762953281403,-0.06604639440774918,0.05645901337265968,-0.5015852451324463,-0.7936778664588928,9.173383712768555
1713723968567461944,-0.15872439742088318,-0.12357067316770554,0.09693906456232071,-0.4489127993583679,-1.3072340488433838,9.402029991149902
1713723968578461944,-0.04580637067556381,-0.09161274135112762,0.09054747968912125,0.6703764796257019,-0.7757213115692139,11.186906814575195
1713723968586461944,-0.002130528911948204,0.034088462591171265,0.07456851005554199,1.2437877655029297,-0.7553706169128418,12.648567199707031
1713723968596461944,0.02130528911948204,0.1342233121395111,0.049002163112163544,0.46088382601737976,-1.5741876363754272,12.678494453430176
1713723968606461944,0.1299622654914856,0.08628641813993454,0.04580637067556381,-1.0438718795776367,-2.5977087020874023,10.76193618774414
1713723968615461944,0.14168016612529755,0.002130528911948204,0.092678003013134,-0.9612719416618347,-1.866280198097229,9.617507934570312
1713723968625461944,0.2865561246871948,-0.05006742849946022,0.07669904083013535,-0.028730420395731926,0.06823474913835526,8.280346870422363
1713723968635461944,0.20133498311042786,-0.014913702383637428,0.08096009492874146,-0.2238578498363495,1.3108254671096802,7.552509307861328
1713723968644461944,0.11291802674531937,0.03195793181657791,0.07989483326673508,-0.3208230137825012,2.1116857528686523,8.438364028930664
1713723968654461944,-0.05432848632335663,0.06178533658385277,0.1065264418721199,-0.386663556098938,2.0266916751861572,8.437166213989258
1713723968663461944,-0.21198762953281403,0.05965480953454971,0.11504855751991272,-0.5135562419891357,1.5430629253387451,9.440337181091309
1713723968673461944,-0.3153182864189148,0.044741105288267136,0.14487595856189728,-0.591367781162262,0.7589619159698486,10.417171478271484
1713723968682461944,-0.19707392156124115,-0.05645901337265968,0.13209278881549835,-1.138442873954773,-0.93254154920578,9.610325813293457
1713723968692461944,-0.1619201898574829,-0.13315805792808533,0.18642127513885498,-1.0690110921859741,-1.8040308952331543,8.652645111083984
1713723968702461944,-0.02130528911948204,-0.12357067316770554,0.16831177473068237,0.4944026470184326,-0.9062053561210632,10.474632263183594
1713723968711461944,-0.002130528911948204,0.008522115647792816,0.15978966653347015,1.3946224451065063,-0.4668693244457245,12.13022232055664
1713723968721461944,-0.022370552644133568,0.13741911947727203,0.13102751970291138,1.0187327861785889,-1.2485761642456055,12.567164421081543
1713723968730461944,0.0649811327457428,0.13848437368869781,0.12144014239311218,-0.39384618401527405,-2.434903144836426,11.257535934448242
1713723968740461944,0.09906959533691406,0.02876213937997818,0.15126754343509674,-1.545457124710083,-2.3127987384796143,9.029731750488281
1713723968750461944,0.1992044448852539,-0.037284255027770996,0.17896442115306854,-0.7948749661445618,-0.23343466222286224,9.223661422729492
1713723968759461944,0.23968449234962463,-0.05006742849946022,0.15020228922367096,0.12330138683319092,1.3551181554794312,8.829815864562988
1713723968768461944,0.16511598229408264,0.002130528911948204,0.1533980816602707,0.3387795388698578,1.4185644388198853,7.392097473144531
1713723968778461944,0.0,0.03302319720387459,0.14913702011108398,0.26815059781074524,1.2940659523010254,8.730456352233887
1713723968788461944,-0.13848437368869781,0.044741105288267136,0.1576591432094574,-0.011971008032560349,0.9217676520347595,9.706093788146973
1713723968798461944,-0.28122982382774353,0.05432848632335663,0.17896442115306854,-0.08499415963888168,0.34835633635520935,10.056843757629395
1713723968807461944,-0.2780340313911438,0.03621898964047432,0.15552860498428345,-0.39624038338661194,-0.3974374830722809,11.340136528015137
1713723968817461944,-0.1161138266324997,-0.0649811327457428,0.16831177473068237,-0.9923965930938721,-1.7848773002624512,9.187748908996582
1713723968826461944,-0.07243797928094864,-0.1022653877735138,0.20772656798362732,-0.14724339544773102,-1.400607943534851,9.0859956741333
1713723968836461944,0.13209278881549835,-0.049002163112163544,0.16511598229408264,0.9923965930938721,-0.3734954595565796,10.066420555114746
1713723968845461944,0.04687163606286049,0.08735168725252151,0.1715075671672821,1.0342950820922852,-0.447715699672699,10.584765434265137
1713723968855461944,-0.04367584362626076,0.1810949593782425,0.14594122767448425,0.6799532771110535,-0.47644612193107605,12.45703125
1713723968864461944,-0.02130528911948204,0.12144014239311218,0.13635385036468506,-0.7062894701957703,-1.4532804489135742,12.089521408081055
1713723968874461944,0.034088462591171265,-0.041545312851667404,0.17257283627986908,-1.9033902883529663,-2.161964178085327,9.48343276977539
1713723968884461944,0.10120011866092682,-0.11078750342130661,0.185356006026268,-0.6392518281936646,-0.5207388401031494,8.640673637390137
1713723968893461944,0.24181503057479858,-0.10546118021011353,0.1576591432094574,0.6787561774253845,0.8834604024887085,8.610746383666992
1713723968903461944,0.1810949593782425,-0.009587380103766918,0.15446333587169647,0.3423708379268646,1.0247182846069336,7.420827865600586
1713723968912461944,0.07243797928094864,0.0649811327457428,0.16831177473068237,0.1711854189634323,1.334767460823059,8.785523414611816
1713723968922461944,-0.08628641813993454,0.08948221057653427,0.16831177473068237,0.033518824726343155,1.0833762884140015,10.064026832580566
1713723968932461944,-0.2545982003211975,0.09161274135112762,0.18855179846286774,-0.05027823522686958,0.5123591423034668,10.20767879486084
1713723968942461944,-0.3344930410385132,0.06072007119655609,0.17470337450504303,0.17238251864910126,-0.11252747476100922,11.08754825592041
1713723968951461944,-0.14487595856189728,-0.07030745595693588,0.17044231295585632,-1.3204022645950317,-1.9285293817520142,9.794678688049316
1713723968960461944,-0.10865697264671326,-0.1395496428012848,0.22903186082839966,-1.2210428714752197,-2.2170307636260986,8.857349395751953
1713723968970461944,0.11717908829450607,-0.11930961906909943,0.18002969026565552,0.8188169598579407,-0.730231523513794,9.840168952941895
1713723968980461944,0.06924218684434891,0.019174760207533836,0.18748654425144196,1.3479355573654175,-0.16160860657691956,11.097125053405762
1713723968989461944,0.017044231295585632,0.1342233121395111,0.14594122767448425,1.1300631761550903,-0.05506663769483566,11.511322021484375
1713723968999461944,-0.05326322093605995,0.2045307755470276,0.15552860498428345,0.5159504413604736,-0.3794809579849243,10.556035041809082
1713723969008461944,0.022370552644133568,0.08948221057653427,0.13209278881549835,-0.93254154920578,-1.217451572418213,9.060855865478516
1713723969018461944,0.007456851191818714,-0.01065264455974102,0.18855179846286774,-1.4389152526855469,-1.1013327836990356,8.432377815246582
1713723969027461944,0.11078750342130661,-0.07137271761894226,0.17363810539245605,-0.37469255924224854,0.11851298063993454,9.245209693908691
1713723969037461944,0.041545312851667404,-0.047936901450157166,0.17789916694164276,0.28371289372444153,0.7673416137695312,9.794678688049316
1713723969047461944,-0.02556634694337845,-0.008522115647792816,0.16405072808265686,0.5662286877632141,0.6356605291366577,10.077195167541504
1713723969056461944,-0.1257012039422989,0.04687163606286049,0.15446333587169647,0.5530605912208557,0.13766659796237946,9.527725219726562
1713723969066461944,-0.14700649678707123,0.06072007119655609,0.14061491191387177,0.1628057062625885,-0.3411737382411957,10.72841739654541
1713723969075461944,-0.04367584362626076,-0.011717909015715122,0.1342233121395111,-0.6572083830833435,-1.2294225692749023,9.48462963104248
1713723969085461944,-0.024501081556081772,-0.05645901337265968,0.1672465205192566,-0.13527239859104156,-1.0833762884140015,9.2033109664917
1713723969094461944,0.09693906456232071,-0.05965480953454971,0.12783172726631165,0.8894459009170532,-0.2585737705230713,9.405621528625488
1713723969104461944,0.026631610468029976,0.014913702383637428,0.12889699637889862,1.1192892789840698,0.05746084079146385,9.41759204864502
1713723969114461944,-0.05006742849946022,0.07456851005554199,0.11078750342130661,1.0019733905792236,0.010773907415568829,11.220425605773926
1713723969124461944,-0.13209278881549835,0.09906959533691406,0.10013485699892044,0.750582218170166,-0.7481880187988281,12.033257484436035
1713723969133461944,-0.03195793181657791,-0.012783173471689224,0.08415588736534119,-0.6548141837120056,-2.3104045391082764,10.939106941223145
1713723969142461944,-0.019174760207533836,-0.11930961906909943,0.12357067316770554,-0.7625532150268555,-2.3092074394226074,9.170989036560059
1713723969152461944,0.16831177473068237,-0.12463594228029251,0.08628641813993454,0.8619126081466675,-0.4357447028160095,8.675389289855957
1713723969162461944,0.18748654425144196,-0.011717909015715122,0.058589544147253036,1.260547161102295,0.8894459009170532,8.71728801727295
1713723969171461944,0.15126754343509674,0.07776430249214172,0.030892668291926384,1.1085153818130493,1.1540051698684692,9.057265281677246
1713723969181461944,0.015978965908288956,0.12144014239311218,0.030892668291926384,0.7422025203704834,0.7745242118835449,9.617507934570312
1713723969190461944,-0.13848437368869781,0.09693906456232071,0.022370552644133568,0.34835633635520935,0.5758054852485657,10.442310333251953
1713723969200461944,-0.22050973773002625,0.05006742849946022,0.030892668291926384,0.02274491637945175,0.02274491637945175,10.272322654724121
1713723969209461944,-0.14594122767448425,-0.05752427875995636,0.024501081556081772,-0.5554547905921936,-0.9900023937225342,8.239645004272461
1713723969219461944,-0.11930961906909943,-0.10972223430871964,0.0649811327457428,-0.3758896589279175,-0.9457096457481384,8.312667846679688
1713723969229461944,0.020240023732185364,-0.07669904083013535,0.044741105288267136,0.46327802538871765,-0.18076223134994507,9.914388656616211
1713723969239461944,-0.003195793367922306,0.04048004746437073,0.030892668291926384,0.8439561128616333,-0.09457096457481384,10.959458351135254
1713723969248461944,-0.052197955548763275,0.12357067316770554,0.007456851191818714,0.9193734526634216,-0.9876081943511963,13.154940605163574
1713723969258461944,0.01065264455974102,0.05326322093605995,-0.014913702383637428,-0.26336216926574707,-2.4193408489227295,12.021286964416504
1713723969267461944,0.019174760207533836,-0.06711165606975555,0.03195793181657791,-1.1216834783554077,-2.434903144836426,9.273940086364746
1713723969276461944,0.16298545897006989,-0.09587380290031433,0.027696875855326653,0.043095629662275314,-0.3579331338405609,8.741230010986328
1713723969286461944,0.23435817658901215,-0.011717909015715122,-0.002130528911948204,1.059434175491333,1.258152961730957,8.291120529174805
1713723969296461944,0.20133498311042786,0.07456851005554199,-0.015978965908288956,0.8786720037460327,1.3335703611373901,7.799111843109131
1713723969306461944,0.04687163606286049,0.10759171098470688,-0.012783173471689224,0.4429273009300232,1.1851298809051514,9.38167953491211
1713723969315461944,-0.13528858125209808,0.07243797928094864,-0.02876213937997818,0.21308395266532898,0.6584054827690125,10.766724586486816
1713723969325461944,-0.296143501996994,0.027696875855326653,-0.011717909015715122,0.0933738648891449,-0.07062894850969315,10.304643630981445
1713723969334461944,-0.2364886999130249,-0.06604639440774918,-0.041545312851667404,-0.43335050344467163,-1.1719616651535034,9.640253067016602
1713723969344461944,-0.1299622654914856,-0.1395496428012848,0.00532632227987051,-0.7218518257141113,-1.8171991109848022,9.129091262817383
1713723969353461944,0.04580637067556381,-0.07456851005554199,0.003195793367922306,0.4991910457611084,-0.9301473498344421,9.48343276977539
1713723969363461944,0.15978966653347015,0.047936901450157166,-0.0511326938867569,1.5646108388900757,-0.08619125932455063,10.04846477508545
1713723969373461944,0.08948221057653427,0.14700649678707123,-0.04580637067556381,1.2030863761901855,-0.11252747476100922,11.186906814575195
1713723969382461944,-0.03195793181657791,0.16405072808265686,-0.06924218684434891,0.16639702022075653,-0.6823474764823914,11.961431503295898
1713723969392461944,-0.03515372797846794,0.05006742849946022,-0.06711165606975555,-1.1001356840133667,-1.3563152551651,10.72482681274414
1713723969401461944,-0.03195793181657791,-0.08948221057653427,-0.019174760207533836,-1.259350061416626,-1.4676456451416016,8.96628475189209
1713723969411461944,0.05752427875995636,-0.11078750342130661,-0.017044231295585632,-0.12210428714752197,-0.304063618183136,9.095572471618652
1713723969420461944,0.14168016612529755,-0.03941478580236435,-0.03941478580236435,0.8690952062606812,0.6560112833976746,9.07641887664795
1713723969430461944,0.1257012039422989,0.05752427875995636,-0.04687163606286049,1.0091559886932373,0.5015852451324463,8.086416244506836
1713723969440461944,0.02556634694337845,0.1203748807311058,-0.05432848632335663,0.5554547905921936,0.529118537902832,9.399635314941406
1713723969449461944,-0.0788295716047287,0.1203748807311058,-0.06817692518234253,-0.14844051003456116,0.4537012279033661,10.42435359954834
1713723969459461944,-0.148071750998497,0.05326322093605995,-0.05326322093605995,-0.9050082564353943,-0.07541735470294952,11.027692794799805
1713723969468461944,-0.09906959533691406,-0.08096009492874146,-0.03941478580236435,-1.502361536026001,-0.9373299479484558,9.672574996948242
1713723969478461944,-0.08522115647792816,-0.13209278881549835,-0.001065264455974102,-0.5734112858772278,-0.9014168977737427,9.028534889221191
1713723969488461944,0.030892668291926384,-0.10013485699892044,-0.037284255027770996,0.773327112197876,-0.3519476354122162,9.592369079589844
1713723969497461944,-0.002130528911948204,0.009587380103766918,-0.04367584362626076,1.137245774269104,-0.4345476031303406,10.11789608001709
1713723969507461944,-0.047936901450157166,0.09054747968912125,-0.06604639440774918,1.037886381149292,-0.790086567401886,11.973402976989746
1713723969516461944,0.014913702383637428,0.06924218684434891,-0.08096009492874146,-0.013168109580874443,-1.7106571197509766,11.344924926757812
1713723969526461944,0.03941478580236435,-0.013848437927663326,-0.03621898964047432,-0.8236053586006165,-1.9333178997039795,9.718064308166504
1713723969535461944,0.13209278881549835,-0.04261057823896408,-0.03195793181657791,-0.1999158412218094,-0.477643221616745,9.680953979492188
1713723969546461944,0.20772656798362732,0.015978965908288956,-0.05006742849946022,0.628477931022644,0.7529764175415039,8.96628475189209
1713723969554461944,0.17789916694164276,0.0788295716047287,-0.06072007119655609,0.606930136680603,0.851138710975647,7.528567314147949
1713723969564461944,0.058589544147253036,0.10333064943552017,-0.05645901337265968,0.13287819921970367,0.9528922438621521,8.646658897399902
1713723969574461944,-0.07137271761894226,0.07030745595693588,-0.06604639440774918,-0.2753331959247589,0.8655039072036743,9.876081466674805
1713723969583461944,-0.19387812912464142,0.01810949482023716,-0.04580637067556381,-0.3842693567276001,0.36152446269989014,9.864110946655273
1713723969593461944,-0.19813919067382812,-0.05326322093605995,-0.047936901450157166,-0.6596025824546814,-0.4668693244457245,10.053253173828125
1713723969603461944,-0.11504855751991272,-0.10865697264671326,-0.029827404767274857,-0.9157821536064148,-1.161187767982483,9.84615421295166
1713723969612461944,-0.03621898964047432,-0.07776430249214172,-0.024501081556081772,0.11611878126859665,-0.8619126081466675,10.481815338134766
1713723969621461944,0.07563377171754837,-0.003195793367922306,-0.06711165606975555,1.07379949092865,-0.6560112833976746,10.360907554626465
1713723969631461944,0.03195793181657791,0.0788295716047287,-0.07350324839353561,0.9840168952941895,-0.849941611289978,10.313023567199707
1713723969641461944,0.01065264455974102,0.08948221057653427,-0.09693906456232071,0.19273322820663452,-0.7793126106262207,11.656170845031738
1713723969650461944,0.04687163606286049,0.027696875855326653,-0.07989483326673508,-0.7445967197418213,-1.0654197931289673,10.308235168457031
1713723969660461944,0.04261057823896408,-0.02130528911948204,-0.04687163606286049,-0.5027823448181152,-0.7625532150268555,9.391256332397461
1713723969670461944,0.1299622654914856,-0.02876213937997818,-0.06817692518234253,0.10893617570400238,0.011971008032560349,8.53293514251709
1713723969679461944,0.08735168725252151,0.007456851191818714,-0.05432848632335663,0.38546645641326904,0.5003881454467773,8.066065788269043
