t,gx,gy,gz,ax,ay,az
1713722594483853948,-0.002130528911948204,0.001065264455974102,-0.01065264455974102,0.005985504016280174,-0.14006079733371735,9.837774276733398
1713722594492853948,-0.001065264455974102,0.001065264455974102,-0.01065264455974102,0.004788403399288654,-0.13527239859104156,9.834183692932129
1713722594502853948,-0.002130528911948204,0.0,-0.01065264455974102,-0.010773907415568829,-0.1388636976480484,9.838972091674805
1713722594512853948,-0.002130528911948204,0.0,-0.01065264455974102,-0.008379706181585789,-0.13407529890537262,9.840168952941895
1713722594521853948,-0.003195793367922306,0.001065264455974102,-0.01065264455974102,-0.0011971008498221636,-0.12928688526153564,9.842562675476074
1713722594531853948,-0.002130528911948204,0.001065264455974102,-0.01065264455974102,-0.005985504016280174,-0.13527239859104156,9.840168952941895
1713722594540853948,-0.002130528911948204,0.0,-0.01065264455974102,-0.011971008032560349,-0.13766659796237946,9.832985877990723
1713722594550853948,-0.002130528911948204,0.0,-0.01065264455974102,-0.005985504016280174,-0.13287819921970367,9.836577415466309
1713722594560853948,-0.002130528911948204,0.0,-0.01065264455974102,0.002394201699644327,-0.13287819921970367,9.836577415466309
1713722594569853948,-0.002130528911948204,0.001065264455974102,-0.01065264455974102,-0.0071826050989329815,-0.13766659796237946,9.823409080505371
1713722594579853948,-0.003195793367922306,0.001065264455974102,-0.01065264455974102,-0.0071826050989329815,-0.14604629576206207,9.821015357971191
1713722594589853948,-0.003195793367922306,0.001065264455974102,-0.01065264455974102,0.005985504016280174,-0.14006079733371735,9.836577415466309
1713722594598853948,-0.004261057823896408,0.0,-0.01065264455974102,-0.002394201699644327,-0.13287819921970367,9.838972091674805
1713722594608853948,-0.003195793367922306,0.001065264455974102,-0.01065264455974102,-0.016759412363171577,-0.14365209639072418,9.831789016723633
1713722594617853948,-0.003195793367922306,0.0,-0.009587380103766918,-0.016759412363171577,-0.14604629576206207,9.831789016723633
1713722594627853948,-0.002130528911948204,0.0,-0.009587380103766918,-0.013168109580874443,-0.1304839849472046,9.835380554199219
1713722594636853948,-0.002130528911948204,0.0,-0.01065264455974102,-0.014365210197865963,-0.12928688526153564,9.832985877990723
1713722594647853948,-0.002130528911948204,0.001065264455974102,-0.01065264455974102,-0.021547814831137657,-0.13527239859104156,9.824606895446777
1713722594655853948,-0.002130528911948204,0.001065264455974102,-0.01065264455974102,-0.020350713282823563,-0.1304839849472046,9.831789016723633
1713722594665853948,-0.003195793367922306,0.0,-0.01065264455974102,-0.008379706181585789,-0.12689268589019775,9.837774276733398
1713722594674853948,-0.003195793367922306,0.001065264455974102,-0.01065264455974102,-0.005985504016280174,-0.13407529890537262,9.829395294189453
1713722594684853948,-0.003195793367922306,0.0,-0.01065264455974102,-0.008379706181585789,-0.13766659796237946,9.822212219238281
1713722594694853948,-0.002130528911948204,0.0,-0.01065264455974102,0.0011971008498221636,-0.1364694982767105,9.832985877990723
1713722594707466062,-0.002130528911948204,0.001065264455974102,-0.01065264455974102,0.0,-0.1388636976480484,9.836577415466309
1713722594716466062,-0.002130528911948204,0.001065264455974102,-0.01065264455974102,-0.004788403399288654,-0.1412578970193863,9.827000617980957
1713722594725466062,-0.002130528911948204,0.0,-0.01065264455974102,-0.0071826050989329815,-0.14365209639072418,9.830592155456543
1713722594735466062,-0.003195793367922306,0.001065264455974102,-0.009587380103766918,-0.010773907415568829,-0.12928688526153564,9.837774276733398
1713722594745466062,-0.002130528911948204,0.001065264455974102,-0.01065264455974102,-0.008379706181585789,-0.12449848651885986,9.835380554199219
1713722594754466062,-0.003195793367922306,0.0,-0.01065264455974102,-0.015562310814857483,-0.13287819921970367,9.825803756713867
1713722594764466062,-0.003195793367922306,0.0,-0.01065264455974102,-0.013168109580874443,-0.13407529890537262,9.829395294189453
1713722594773466062,-0.003195793367922306,0.0,-0.01065264455974102,0.005985504016280174,-0.1256955862045288,9.837774276733398
1713722594783466062,-0.002130528911948204,0.001065264455974102,-0.01065264455974102,0.0035913025494664907,-0.12689268589019775,9.838972091674805
1713722594792466062,-0.002130528911948204,0.0,-0.01065264455974102,-0.010773907415568829,-0.14365209639072418,9.829395294189453
1713722594802466062,-0.002130528911948204,0.0,-0.01065264455974102,-0.009576806798577309,-0.1388636976480484,9.825803756713867
1713722594812466062,-0.002130528911948204,0.001065264455974102,-0.01065264455974102,-0.004788403399288654,-0.12090718746185303,9.832985877990723
1713722594822466062,-0.003195793367922306,0.001065264455974102,-0.01065264455974102,-0.0035913025494664907,-0.12689268589019775,9.837774276733398
1713722594831466062,-0.003195793367922306,0.001065264455974102,-0.01065264455974102,-0.0035913025494664907,-0.1364694982767105,9.832985877990723
1713722594841466062,-0.002130528911948204,0.0,-0.01065264455974102,-0.004788403399288654,-0.13407529890537262,9.828197479248047
1713722594850466062,-0.002130528911948204,0.001065264455974102,-0.01065264455974102,-0.0071826050989329815,-0.13407529890537262,9.834183692932129
1713722594860466062,-0.002130528911948204,0.001065264455974102,-0.01065264455974102,-0.008379706181585789,-0.1280897855758667,9.836577415466309
1713722594869466062,-0.001065264455974102,0.0,-0.01065264455974102,-0.008379706181585789,-0.13287819921970367,9.831789016723633
1713722594879466062,-0.002130528911948204,0.001065264455974102,-0.01065264455974102,-0.0035913025494664907,-0.13527239859104156,9.829395294189453
1713722594889466062,-0.003195793367922306,0.002130528911948204,-0.01065264455974102,0.002394201699644327,-0.1256955862045288,9.827000617980957
1713722594898466062,-0.003195793367922306,0.001065264455974102,-0.01065264455974102,-0.004788403399288654,-0.12928688526153564,9.825803756713867
1713722594907466062,-0.002130528911948204,0.0,-0.01065264455974102,-0.015562310814857483,-0.1412578970193863,9.824606895446777
1713722594917466062,-0.002130528911948204,0.0,-0.01065264455974102,-0.010773907415568829,-0.14006079733371735,9.829395294189453
1713722594927466062,-0.003195793367922306,0.001065264455974102,-0.01065264455974102,-0.002394201699644327,-0.1280897855758667,9.838972091674805
1713722594936466062,-0.003195793367922306,0.001065264455974102,-0.01065264455974102,-0.008379706181585789,-0.13527239859104156,9.840168952941895
1713722594947466062,-0.002130528911948204,0.0,-0.01065264455974102,-0.014365210197865963,-0.14604629576206207,9.830592155456543
1713722594956466062,-0.001065264455974102,0.0,-0.01065264455974102,-0.004788403399288654,-0.1364694982767105,9.834183692932129
1713722594965466062,-0.002130528911948204,0.001065264455974102,-0.01065264455974102,-0.002394201699644327,-0.12928688526153564,9.840168952941895
1713722594975466062,-0.002130528911948204,0.001065264455974102,-0.01065264455974102,-0.011971008032560349,-0.1364694982767105,9.829395294189453
1713722594984466062,-0.003195793367922306,0.0,-0.01065264455974102,-0.0071826050989329815,-0.14006079733371735,9.819818496704102
1713722594994466062,-0.002130528911948204,0.0,-0.009587380103766918,0.004788403399288654,-0.1256955862045288,9.829395294189453
1713722595003466062,-0.002130528911948204,0.001065264455974102,-0.01065264455974102,0.004788403399288654,-0.12330138683319092,9.837774276733398
1713722595013466062,-0.002130528911948204,0.001065264455974102,-0.01065264455974102,-0.0035913025494664907,-0.1364694982767105,9.829395294189453
1713722595023466062,-0.002130528911948204,0.0,-0.01065264455974102,-0.013168109580874443,-0.13527239859104156,9.821015357971191
1713722595032466062,-0.002130528911948204,0.0,-0.009587380103766918,-0.009576806798577309,-0.1304839849472046,9.828197479248047
1713722595042466062,-0.002130528911948204,0.001065264455974102,-0.01065264455974102,-0.0011971008498221636,-0.13168108463287354,9.836577415466309
1713722595051466062,-0.002130528911948204,0.001065264455974102,-0.009587380103766918,0.0,-0.1388636976480484,9.824606895446777
1713722595061466062,-0.002130528911948204,0.0,-0.01065264455974102,-0.0011971008498221636,-0.1388636976480484,9.818620681762695
1713722595070466062,-0.002130528911948204,0.0,-0.009587380103766918,0.0,-0.13287819921970367,9.829395294189453
1713722595081466062,-0.002130528911948204,0.001065264455974102,-0.01065264455974102,-0.004788403399288654,-0.13527239859104156,9.831789016723633
1713722595090466062,-0.002130528911948204,0.001065264455974102,-0.009587380103766918,-0.011971008032560349,-0.14484919607639313,9.837774276733398
1713722595099466062,-0.002130528911948204,0.0,-0.01065264455974102,-0.0035913025494664907,-0.14484919607639313,9.837774276733398
1713722595109466062,-0.002130528911948204,0.001065264455974102,-0.01065264455974102,0.002394201699644327,-0.13407529890537262,9.832985877990723
1713722595118466062,-0.003195793367922306,0.001065264455974102,-0.01065264455974102,0.002394201699644327,-0.13766659796237946,9.832985877990723
1713722595128466062,-0.002130528911948204,0.001065264455974102,-0.01065264455974102,-0.005985504016280174,-0.13766659796237946,9.828197479248047
1713722595138466062,-0.002130528911948204,0.001065264455974102,-0.01065264455974102,-0.002394201699644327,-0.1280897855758667,9.829395294189453
1713722595147466062,-0.002130528911948204,0.0,-0.01065264455974102,0.0071826050989329815,-0.1256955862045288,9.835380554199219
1713722595157466062,-0.002130528911948204,0.001065264455974102,-0.01065264455974102,-0.005985504016280174,-0.13287819921970367,9.830592155456543
1713722595166466062,-0.003195793367922306,0.001065264455974102,-0.009587380103766918,-0.015562310814857483,-0.1412578970193863,9.822212219238281
1713722595176466062,-0.002130528911948204,0.0,-0.01065264455974102,-0.002394201699644327,-0.13407529890537262,9.828197479248047
1713722595186466062,-0.003195793367922306,0.001065264455974102,-0.01065264455974102,0.0,-0.1256955862045288,9.834183692932129
1713722595196466062,-0.002130528911948204,0.001065264455974102,-0.01065264455974102,-0.010773907415568829,-0.1304839849472046,9.829395294189453
1713722595205466062,-0.002130528911948204,0.001065264455974102,-0.01065264455974102,-0.016759412363171577,-0.13287819921970367,9.827000617980957
1713722595214466062,-0.002130528911948204,0.001065264455974102,-0.01065264455974102,-0.005985504016280174,-0.1256955862045288,9.824606895446777
1713722595224466062,-0.002130528911948204,0.001065264455974102,-0.01065264455974102,0.005985504016280174,-0.12928688526153564,9.827000617980957
1713722595233466062,-0.002130528911948204,0.001065264455974102,-0.01065264455974102,-0.0035913025494664907,-0.1388636976480484,9.827000617980957
1713722595243466062,-0.003195793367922306,0.001065264455974102,-0.01065264455974102,-0.009576806798577309,-0.14365209639072418,9.824606895446777
1713722595253466062,-0.002130528911948204,0.0,-0.01065264455974102,-0.002394201699644327,-0.13527239859104156,9.828197479248047
1713722595262466062,-0.002130528911948204,0.001065264455974102,-0.01065264455974102,0.0,-0.1304839849472046,9.827000617980957
1713722595272466062,-0.002130528911948204,0.001065264455974102,-0.01065264455974102,-0.008379706181585789,-0.13527239859104156,9.829395294189453
1713722595281466062,-0.002130528911948204,0.001065264455974102,-0.01065264455974102,-0.014365210197865963,-0.1388636976480484,9.831789016723633
1713722595291466062,-0.002130528911948204,0.001065264455974102,-0.01065264455974102,-0.005985504016280174,-0.1364694982767105,9.831789016723633
1713722595300466062,-0.003195793367922306,0.0,-0.01065264455974102,-0.010773907415568829,-0.1412578970193863,9.831789016723633
1713722595310466062,-0.002130528911948204,0.001065264455974102,-0.01065264455974102,-0.017956512048840523,-0.15083470940589905,9.822212219238281
1713722595320466062,-0.002130528911948204,0.0,-0.009587380103766918,-0.0071826050989329815,-0.14365209639072418,9.821015357971191
1713722595329466062,-0.003195793367922306,0.001065264455974102,-0.01065264455974102,-0.002394201699644327,-0.1388636976480484,9.831789016723633
1713722595339466062,-0.002130528911948204,0.0,-0.01065264455974102,-0.005985504016280174,-0.13766659796237946,9.835380554199219
1713722595349466062,-0.002130528911948204,0.001065264455974102,-0.01065264455974102,-0.014365210197865963,-0.1412578970193863,9.827000617980957
1713722595358466062,-0.002130528911948204,0.0,-0.01065264455974102,-0.013168109580874443,-0.14245499670505524,9.829395294189453
1713722595368466062,-0.003195793367922306,0.001065264455974102,-0.01065264455974102,-0.002394201699644327,-0.13766659796237946,9.835380554199219
1713722595378466062,-0.003195793367922306,0.001065264455974102,-0.01065264455974102,0.0,-0.13766659796237946,9.830592155456543
1713722595387466062,-0.001065264455974102,0.0,-0.01065264455974102,-0.009576806798577309,-0.14365209639072418,9.825803756713867
1713722595397466062,-0.002130528911948204,0.001065264455974102,-0.009587380103766918,-0.009576806798577309,-0.1412578970193863,9.829395294189453
1713722595406466062,-0.003195793367922306,0.0,-0.01065264455974102,-0.002394201699644327,-0.1364694982767105,9.832985877990723
1713722595416466062,-0.002130528911948204,0.001065264455974102,-0.01065264455974102,-0.005985504016280174,-0.14484919607639313,9.835380554199219
1713722595425466062,-0.002130528911948204,0.0,-0.01065264455974102,-0.008379706181585789,-0.14604629576206207,9.835380554199219
1713722595435466062,-0.002130528911948204,0.0,-0.01065264455974102,-0.004788403399288654,-0.1412578970193863,9.828197479248047
1713722595444466062,-0.003195793367922306,0.001065264455974102,-0.01065264455974102,-0.0011971008498221636,-0.14006079733371735,9.829395294189453
1713722595454466062,-0.003195793367922306,0.001065264455974102,-0.01065264455974102,-0.008379706181585789,-0.1412578970193863,9.830592155456543
1713722595463466062,-0.002130528911948204,0.0,-0.01065264455974102,-0.011971008032560349,-0.1412578970193863,9.829395294189453
1713722595473466062,-0.002130528911948204,0.0,-0.01065264455974102,-0.004788403399288654,-0.13407529890537262,9.830592155456543
1713722595483466062,-0.002130528911948204,0.0,-0.011717909015715122,-0.002394201699644327,-0.12928688526153564,9.829395294189453
1713722595492466062,-0.002130528911948204,0.001065264455974102,-0.01065264455974102,-0.010773907415568829,-0.14006079733371735,9.827000617980957
1713722595502466062,-0.003195793367922306,0.001065264455974102,-0.009587380103766918,-0.009576806798577309,-0.1388636976480484,9.825803756713867
1713722595512466062,-0.003195793367922306,0.0,-0.009587380103766918,0.0035913025494664907,-0.1280897855758667,9.828197479248047
1713722595521466062,-0.002130528911948204,0.001065264455974102,-0.01065264455974102,0.005985504016280174,-0.1256955862045288,9.836577415466309
1713722595530466062,-0.003195793367922306,0.001065264455974102,-0.01065264455974102,-0.0035913025494664907,-0.13168108463287354,9.831789016723633
1713722595540466062,-0.002130528911948204,0.001065264455974102,-0.01065264455974102,-0.009576806798577309,-0.13766659796237946,9.825803756713867
1713722595550466062,-0.003195793367922306,0.001065264455974102,-0.009587380103766918,-0.0011971008498221636,-0.1304839849472046,9.825803756713867
1713722595559466062,-0.002130528911948204,0.001065264455974102,-0.01065264455974102,-0.0011971008498221636,-0.1304839849472046,9.823409080505371
1713722595569466062,-0.003195793367922306,0.001065264455974102,-0.01065264455974102,-0.008379706181585789,-0.1364694982767105,9.823409080505371
1713722595579466062,-0.003195793367922306,0.0,-0.01065264455974102,-0.0071826050989329815,-0.14006079733371735,9.827000617980957
1713722595588466062,-0.003195793367922306,0.0,-0.009587380103766918,-0.0011971008498221636,-0.14006079733371735,9.827000617980957
1713722595598466062,-0.002130528911948204,0.0,-0.01065264455974102,-0.0071826050989329815,-0.13168108463287354,9.824606895446777
1713722595607466062,-0.002130528911948204,0.001065264455974102,-0.01065264455974102,-0.015562310814857483,-0.1364694982767105,9.822212219238281
1713722595617466062,-0.002130528911948204,0.0,-0.01065264455974102,-0.0071826050989329815,-0.1364694982767105,9.827000617980957
1713722595627466062,-0.003195793367922306,0.0,-0.01065264455974102,-0.0035913025494664907,-0.1304839849472046,9.830592155456543
1713722595636466062,-0.003195793367922306,0.001065264455974102,-0.01065264455974102,-0.014365210197865963,-0.13407529890537262,9.831789016723633
1713722595645466062,-0.002130528911948204,0.001065264455974102,-0.01065264455974102,-0.014365210197865963,-0.1412578970193863,9.831789016723633
1713722595655466062,-0.002130528911948204,0.0,-0.01065264455974102,-0.0071826050989329815,-0.1388636976480484,9.830592155456543
1713722595665466062,-0.002130528911948204,0.001065264455974102,-0.01065264455974102,-0.0035913025494664907,-0.13527239859104156,9.836577415466309
1713722595674466062,-0.002130528911948204,0.001065264455974102,-0.01065264455974102,-0.010773907415568829,-0.1412578970193863,9.832985877990723
1713722595684466062,-0.002130528911948204,0.0,-0.01065264455974102,-0.017956512048840523,-0.1412578970193863,9.825803756713867
1713722595694466062,-0.003195793367922306,0.0,-0.01065264455974102,-0.002394201699644327,-0.13766659796237946,9.829395294189453
1713722595703466062,-0.003195793367922306,0.001065264455974102,-0.01065264455974102,0.0071826050989329815,-0.13766659796237946,9.832985877990723
1713722595713466062,-0.002130528911948204,0.0,-0.01065264455974102,-0.0035913025494664907,-0.14245499670505524,9.829395294189453
1713722595722466062,-0.002130528911948204,0.0,-0.01065264455974102,-0.011971008032560349,-0.14006079733371735,9.827000617980957
1713722595732466062,-0.002130528911948204,0.001065264455974102,-0.01065264455974102,-0.010773907415568829,-0.13287819921970367,9.829395294189453
1713722595741466062,-0.002130528911948204,0.002130528911948204,-0.01065264455974102,-0.002394201699644327,-0.13168108463287354,9.840168952941895
1713722595752466062,-0.002130528911948204,0.001065264455974102,-0.01065264455974102,-0.0011971008498221636,-0.13527239859104156,9.831789016723633
1713722595761466062,-0.002130528911948204,0.0,-0.01065264455974102,-0.010773907415568829,-0.13766659796237946,9.824606895446777
1713722595770466062,-0.003195793367922306,0.001065264455974102,-0.01065264455974102,-0.0071826050989329815,-0.13407529890537262,9.835380554199219
1713722595780466062,-0.003195793367922306,0.001065264455974102,-0.01065264455974102,-0.0035913025494664907,-0.1304839849472046,9.834183692932129
1713722595789466062,-0.002130528911948204,0.001065264455974102,-0.01065264455974102,-0.011971008032560349,-0.1364694982767105,9.828197479248047
1713722595799466062,-0.002130528911948204,0.001065264455974102,-0.01065264455974102,-0.010773907415568829,-0.14006079733371735,9.830592155456543
1713722595809466062,-0.002130528911948204,0.001065264455974102,-0.009587380103766918,-0.005985504016280174,-0.13527239859104156,9.836577415466309
1713722595819466062,-0.003195793367922306,0.001065264455974102,-0.01065264455974102,-0.0071826050989329815,-0.13407529890537262,9.835380554199219
1713722595828466062,-0.003195793367922306,0.001065264455974102,-0.011717909015715122,-0.008379706181585789,-0.14245499670505524,9.829395294189453
1713722595837466062,-0.003195793367922306,0.0,-0.01065264455974102,-0.011971008032560349,-0.1412578970193863,9.827000617980957
1713722595847466062,-0.003195793367922306,0.0,-0.01065264455974102,-0.0071826050989329815,-0.13407529890537262,9.829395294189453
1713722595856466062,-0.003195793367922306,0.001065264455974102,-0.009587380103766918,-0.004788403399288654,-0.1388636976480484,9.827000617980957
1713722595866466062,-0.002130528911948204,0.001065264455974102,-0.01065264455974102,-0.005985504016280174,-0.14724339544773102,9.818620681762695
1713722595875466062,-0.003195793367922306,0.001065264455974102,-0.01065264455974102,-0.0035913025494664907,-0.1412578970193863,9.827000617980957
1713722595886466062,-0.002130528911948204,0.0,-0.01065264455974102,0.0011971008498221636,-0.12928688526153564,9.836577415466309
1713722595895466062,-0.002130528911948204,0.001065264455974102,-0.01065264455974102,0.002394201699644327,-0.13168108463287354,9.830592155456543
1713722595904466062,-0.002130528911948204,0.0,-0.01065264455974102,-0.0071826050989329815,-0.1388636976480484,9.823409080505371
1713722595914466062,-0.002130528911948204,0.0,-0.01065264455974102,-0.0071826050989329815,-0.13527239859104156,9.823409080505371
1713722595924466062,-0.002130528911948204,0.001065264455974102,-0.01065264455974102,-0.002394201699644327,-0.1304839849472046,9.832985877990723
1713722595933466062,-0.002130528911948204,0.001065264455974102,-0.01065264455974102,-0.0071826050989329815,-0.1364694982767105,9.836577415466309
1713722595943466062,-0.003195793367922306,0.001065264455974102,-0.01065264455974102,-0.011971008032560349,-0.14006079733371735,9.823409080505371
1713722595952466062,-0.004261057823896408,0.001065264455974102,-0.01065264455974102,-0.010773907415568829,-0.13168108463287354,9.824606895446777
1713722595962466062,-0.003195793367922306,0.001065264455974102,-0.01065264455974102,-0.004788403399288654,-0.1304839849472046,9.830592155456543
1713722595971466062,-0.003195793367922306,0.001065264455974102,-0.01065264455974102,-0.005985504016280174,-0.1388636976480484,9.829395294189453
1713722595981466062,-0.002130528911948204,0.001065264455974102,-0.01065264455974102,-0.014365210197865963,-0.14604629576206207,9.829395294189453
1713722595991466062,-0.003195793367922306,0.001065264455974102,-0.01065264455974102,-0.011971008032560349,-0.1364694982767105,9.827000617980957
1713722596000466062,-0.003195793367922306,0.002130528911948204,-0.009587380103766918,-0.0071826050989329815,-0.1280897855758667,9.834183692932129
1713722596010466062,-0.002130528911948204,0.001065264455974102,-0.01065264455974102,-0.017956512048840523,-0.13766659796237946,9.834183692932129
1713722596019466062,-0.003195793367922306,0.0,-0.01065264455974102,-0.016759412363171577,-0.1364694982767105,9.828197479248047
1713722596029466062,-0.003195793367922306,0.001065264455974102,-0.009587380103766918,0.0,-0.1256955862045288,9.830592155456543
1713722596039466062,-0.002130528911948204,0.001065264455974102,-0.01065264455974102,-0.0035913025494664907,-0.1280897855758667,9.834183692932129
1713722596048466062,-0.002130528911948204,0.001065264455974102,-0.01065264455974102,-0.016759412363171577,-0.14245499670505524,9.829395294189453
1713722596058466062,-0.002130528911948204,0.0,-0.01065264455974102,-0.014365210197865963,-0.1412578970193863,9.822212219238281
1713722596068466062,-0.002130528911948204,0.0,-0.009587380103766918,0.0011971008498221636,-0.13168108463287354,9.825803756713867
1713722596077466062,-0.003195793367922306,0.001065264455974102,-0.01065264455974102,-0.005985504016280174,-0.13407529890537262,9.831789016723633
1713722596087466062,-0.003195793367922306,0.0,-0.01065264455974102,-0.019153613597154617,-0.1364694982767105,9.822212219238281
1713722596096466062,-0.003195793367922306,-0.001065264455974102,-0.01065264455974102,-0.013168109580874443,-0.13766659796237946,9.822212219238281
1713722596106466062,-0.003195793367922306,0.0,-0.01065264455974102,-0.004788403399288654,-0.13527239859104156,9.835380554199219
1713722596115466062,-0.003195793367922306,0.001065264455974102,-0.01065264455974102,-0.0035913025494664907,-0.13407529890537262,9.830592155456543
1713722596125466062,-0.002130528911948204,0.0,-0.01065264455974102,-0.0071826050989329815,-0.1364694982767105,9.822212219238281
1713722596134466062,-0.002130528911948204,0.001065264455974102,-0.01065264455974102,-0.008379706181585789,-0.1304839849472046,9.825803756713867
1713722596144466062,-0.002130528911948204,0.0,-0.01065264455974102,-0.0035913025494664907,-0.12330138683319092,9.835380554199219
1713722596153466062,-0.003195793367922306,0.001065264455974102,-0.01065264455974102,-0.005985504016280174,-0.13407529890537262,9.827000617980957
1713722596163466062,-0.003195793367922306,0.0,-0.01065264455974102,-0.008379706181585789,-0.14724339544773102,9.81143856048584
1713722596173466062,-0.003195793367922306,0.0,-0.01065264455974102,-0.0035913025494664907,-0.1388636976480484,9.81383228302002
1713722596182466062,-0.003195793367922306,0.0,-0.01065264455974102,-0.0071826050989329815,-0.13168108463287354,9.829395294189453
1713722596193466062,-0.002130528911948204,0.001065264455974102,-0.01065264455974102,-0.013168109580874443,-0.1412578970193863,9.827000617980957
1713722596201466062,-0.002130528911948204,0.001065264455974102,-0.01065264455974102,-0.008379706181585789,-0.14604629576206207,9.816226959228516
1713722596211466062,-0.003195793367922306,0.001065264455974102,-0.009587380103766918,0.0,-0.1388636976480484,9.825803756713867
1713722596221466062,-0.002130528911948204,0.001065264455974102,-0.01065264455974102,-0.005985504016280174,-0.1304839849472046,9.834183692932129
1713722596230466062,-0.002130528911948204,0.001065264455974102,-0.01065264455974102,-0.015562310814857483,-0.13766659796237946,9.825803756713867
1713722596240466062,-0.003195793367922306,0.0,-0.01065264455974102,-0.014365210197865963,-0.14365209639072418,9.819818496704102
1713722596249466062,-0.003195793367922306,0.0,-0.01065264455974102,-0.0071826050989329815,-0.13407529890537262,9.824606895446777
1713722596260466062,-0.002130528911948204,0.0,-0.01065264455974102,0.0011971008498221636,-0.12928688526153564,9.831789016723633
1713722596269466062,-0.003195793367922306,0.001065264455974102,-0.01065264455974102,-0.002394201699644327,-0.14245499670505524,9.828197479248047
1713722596278466062,-0.003195793367922306,0.001065264455974102,-0.01065264455974102,-0.011971008032560349,-0.14484919607639313,9.819818496704102
1713722596288466062,-0.001065264455974102,0.0,-0.011717909015715122,-0.0011971008498221636,-0.13287819921970367,9.823409080505371
1713722596297466062,-0.002130528911948204,0.001065264455974102,-0.01065264455974102,0.0011971008498221636,-0.13168108463287354,9.825803756713867
1713722596307466062,-0.002130528911948204,0.001065264455974102,-0.01065264455974102,-0.013168109580874443,-0.14006079733371735,9.822212219238281
1713722596317466062,-0.002130528911948204,0.0,-0.01065264455974102,-0.0071826050989329815,-0.1280897855758667,9.827000617980957
1713722596327466062,-0.002130528911948204,0.0,-0.01065264455974102,0.0,-0.12090718746185303,9.834183692932129
1713722596336466062,-0.003195793367922306,0.001065264455974102,-0.01065264455974102,-0.010773907415568829,-0.13287819921970367,9.830592155456543
1713722596345466062,-0.003195793367922306,0.001065264455974102,-0.01065264455974102,-0.017956512048840523,-0.13766659796237946,9.821015357971191
1713722596355466062,-0.003195793367922306,0.001065264455974102,-0.009587380103766918,-0.017956512048840523,-0.13287819921970367,9.827000617980957
1713722596365466062,-0.003195793367922306,0.001065264455974102,-0.01065264455974102,-0.010773907415568829,-0.12689268589019775,9.836577415466309
1713722596374466062,-0.003195793367922306,0.001065264455974102,-0.01065264455974102,-0.010773907415568829,-0.13766659796237946,9.827000617980957
1713722596384466062,-0.003195793367922306,0.0,-0.01065264455974102,-0.017956512048840523,-0.14844051003456116,9.819818496704102
1713722596393466062,-0.002130528911948204,0.0,-0.01065264455974102,-0.005985504016280174,-0.1364694982767105,9.828197479248047
1713722596403466062,-0.002130528911948204,0.0,-0.011717909015715122,0.005985504016280174,-0.12449848651885986,9.834183692932129
1713722596412466062,-0.003195793367922306,0.001065264455974102,-0.01065264455974102,-0.004788403399288654,-0.13407529890537262,9.827000617980957
1713722596422466062,-0.002130528911948204,0.0,-0.01065264455974102,-0.013168109580874443,-0.14844051003456116,9.819818496704102
1713722596432466062,-0.003195793367922306,0.001065264455974102,-0.01065264455974102,-0.0035913025494664907,-0.14484919607639313,9.825803756713867
1713722596441466062,-0.003195793367922306,0.0,-0.01065264455974102,0.0,-0.13766659796237946,9.829395294189453
1713722596451466062,-0.002130528911948204,0.001065264455974102,-0.01065264455974102,-0.010773907415568829,-0.1412578970193863,9.825803756713867
1713722596460466062,-0.003195793367922306,0.0,-0.01065264455974102,-0.017956512048840523,-0.14365209639072418,9.825803756713867
1713722596470466062,-0.003195793367922306,0.001065264455974102,-0.009587380103766918,-0.005985504016280174,-0.1364694982767105,9.829395294189453
1713722596480466062,-0.002130528911948204,0.001065264455974102,-0.01065264455974102,0.0,-0.13168108463287354,9.832985877990723
1713722596489466062,-0.002130528911948204,0.001065264455974102,-0.01065264455974102,-0.011971008032560349,-0.13407529890537262,9.827000617980957
1713722596498466062,-0.002130528911948204,0.0,-0.01065264455974102,-0.011971008032560349,-0.13527239859104156,9.825803756713867
1713722596509466062,-0.003195793367922306,0.0,-0.01065264455974102,-0.0035913025494664907,-0.13287819921970367,9.832985877990723
1713722596518466062,-0.003195793367922306,0.0,-0.011717909015715122,-0.008379706181585789,-0.13407529890537262,9.835380554199219
1713722596527466062,-0.003195793367922306,0.0,-0.011717909015715122,-0.017956512048840523,-0.13527239859104156,9.824606895446777
1713722596537466062,-0.002130528911948204,0.0,-0.009587380103766918,-0.010773907415568829,-0.12928688526153564,9.817423820495605
1713722596547466062,-0.002130528911948204,0.0,-0.009587380103766918,-0.0035913025494664907,-0.12449848651885986,9.828197479248047
1713722596556466062,-0.002130528911948204,0.001065264455974102,-0.01065264455974102,-0.010773907415568829,-0.13168108463287354,9.832985877990723
1713722596566466062,-0.002130528911948204,0.001065264455974102,-0.01065264455974102,-0.019153613597154617,-0.14006079733371735,9.831789016723633
1713722596575466062,-0.003195793367922306,0.0,-0.01065264455974102,-0.010773907415568829,-0.13527239859104156,9.830592155456543
1713722596585466062,-0.003195793367922306,0.001065264455974102,-0.01065264455974102,0.0011971008498221636,-0.1304839849472046,9.835380554199219
1713722596594466062,-0.002130528911948204,0.0,-0.01065264455974102,-0.0035913025494664907,-0.1412578970193863,9.829395294189453
1713722596604466062,-0.002130528911948204,0.0,-0.01065264455974102,-0.005985504016280174,-0.1496376097202301,9.816226959228516
1713722596614466062,-0.002130528911948204,0.0,-0.01065264455974102,-0.0035913025494664907,-0.13527239859104156,9.823409080505371
1713722596624466062,-0.002130528911948204,0.001065264455974102,-0.01065264455974102,0.0,-0.12689268589019775,9.829395294189453
1713722596633466062,-0.002130528911948204,0.0,-0.01065264455974102,-0.0071826050989329815,-0.13766659796237946,9.824606895446777
1713722596643466062,-0.003195793367922306,0.0,-0.01065264455974102,-0.009576806798577309,-0.14844051003456116,9.821015357971191
1713722596652466062,-0.003195793367922306,0.0,-0.01065264455974102,-0.0011971008498221636,-0.1412578970193863,9.823409080505371
1713722596662466062,-0.003195793367922306,0.0,-0.01065264455974102,-0.0011971008498221636,-0.12689268589019775,9.830592155456543
1713722596671466062,-0.002130528911948204,0.001065264455974102,-0.01065264455974102,-0.014365210197865963,-0.13287819921970367,9.827000617980957
1713722596681466062,-0.002130528911948204,0.0,-0.01065264455974102,-0.013168109580874443,-0.14006079733371735,9.818620681762695
1713722596691466062,-0.002130528911948204,0.0,-0.01065264455974102,0.008379706181585789,-0.13168108463287354,9.821015357971191
1713722596700466062,-0.001065264455974102,0.001065264455974102,-0.01065264455974102,0.004788403399288654,-0.12928688526153564,9.829395294189453
1713722596709466062,-0.002130528911948204,0.001065264455974102,-0.01065264455974102,-0.0071826050989329815,-0.13766659796237946,9.824606895446777
1713722596719466062,-0.003195793367922306,0.0,-0.009587380103766918,-0.008379706181585789,-0.1364694982767105,9.817423820495605
1713722596729466062,-0.003195793367922306,0.0,-0.01065264455974102,-0.004788403399288654,-0.12928688526153564,9.821015357971191
1713722596738466062,-0.003195793367922306,0.001065264455974102,-0.01065264455974102,-0.0011971008498221636,-0.12689268589019775,9.832985877990723
1713722596748466062,-0.002130528911948204,0.0,-0.01065264455974102,-0.008379706181585789,-0.13527239859104156,9.829395294189453
1713722596758466062,-0.002130528911948204,0.0,-0.01065264455974102,-0.005985504016280174,-0.1364694982767105,9.819818496704102
1713722596767466062,-0.002130528911948204,-0.001065264455974102,-0.01065264455974102,0.02513911761343479,0.07422025501728058,10.214860916137695
1713722596776466062,0.013848437927663326,0.002130528911948204,-0.009587380103766918,-0.040701426565647125,0.25019407272338867,9.8784761428833
1713722596786466062,0.020240023732185364,0.007456851191818714,-0.008522115647792816,0.03711012750864029,0.6224924325942993,9.906009674072266
1713722596796466062,0.04048004746437073,0.009587380103766918,-0.009587380103766918,0.10773907601833344,1.2413935661315918,10.60511589050293
1713722596806466062,0.06817692518234253,0.006391586735844612,-0.013848437927663326,-0.09576806426048279,1.4413094520568848,9.764751434326172
1713722596815466062,0.08415588736534119,0.003195793367922306,-0.01065264455974102,-0.1975216418504715,1.5119383335113525,8.761581420898438
1713722596824466062,0.044741105288267136,-0.002130528911948204,-0.009587380103766918,0.12449848651885986,2.164358377456665,10.33217716217041
1713722596834466062,0.05326322093605995,-0.013848437927663326,-0.014913702383637428,0.32441431283950806,2.537853717803955,10.939106941223145
1713722596844466062,0.03834952041506767,-0.01065264455974102,-0.013848437927663326,0.15442600846290588,2.0853495597839355,8.537723541259766
1713722596853466062,-0.014913702383637428,0.0,-0.019174760207533836,0.17956513166427612,2.098517656326294,8.787917137145996
1713722596863466062,-0.04687163606286049,0.011717909015715122,-0.019174760207533836,0.22864626348018646,2.647987127304077,10.81820011138916
1713722596873466062,-0.008522115647792816,0.023435818031430244,-0.022370552644133568,-0.0071826050989329815,2.2421698570251465,9.05487060546875
1713722596883466062,-0.05752427875995636,0.029827404767274857,-0.013848437927663326,-0.18794482946395874,1.8734627962112427,8.724471092224121
1713722596892466062,-0.049002163112163544,0.013848437927663326,-0.014913702383637428,-0.16519992053508759,2.2254104614257812,10.787075996398926
1713722596901466062,-0.017044231295585632,-0.003195793367922306,-0.015978965908288956,-0.3076549172401428,1.8076221942901611,9.305065155029297
1713722596911466062,-0.047936901450157166,-0.017044231295585632,-0.004261057823896408,-0.19153612852096558,1.5969325304031372,9.430760383605957
1713722596921466062,-0.03834952041506767,-0.03195793181657791,-0.012783173471689224,0.015562310814857483,1.7393875122070312,10.753557205200195
1713722596930466062,-0.027696875855326653,-0.02130528911948204,-0.004261057823896408,0.10654197633266449,1.2725181579589844,9.93593692779541
1713722596939466062,-0.058589544147253036,0.0,-0.008522115647792816,0.363918662071228,0.8415618538856506,10.393229484558105
1713722596949466062,-0.03941478580236435,0.026631610468029976,-0.012783173471689224,0.31603461503982544,0.3148375153541565,9.838972091674805
1713722596959466062,-0.04580637067556381,0.04687163606286049,-0.011717909015715122,0.20470423996448517,-0.20350714027881622,9.10993766784668
1713722596968466062,-0.009587380103766918,0.02556634694337845,-0.015978965908288956,-0.15801730751991272,-0.2322375625371933,9.430760383605957
1713722596978466062,-0.004261057823896408,0.01065264455974102,0.003195793367922306,-0.41539397835731506,0.04429272934794426,9.405621528625488
1713722596988466062,0.012783173471689224,0.0,-0.012783173471689224,-0.2106897532939911,0.06224924325942993,9.436745643615723
1713722596997466062,-0.05006742849946022,0.006391586735844612,-0.004261057823896408,0.020350713282823563,-0.5219359397888184,9.737217903137207
1713722597007466062,-0.10439591109752655,-0.006391586735844612,-0.019174760207533836,-0.06224924325942993,-1.315613865852356,11.02051067352295
1713722597016466062,-0.07137271761894226,-0.06285060197114944,-0.01810949482023716,-0.8547300100326538,-2.4612393379211426,10.916362762451172
1713722597026466062,-0.06391586363315582,-0.10759171098470688,0.011717909015715122,-0.5111620426177979,-3.0621838569641113,9.855731010437012
1713722597035466062,-0.006391586735844612,-0.08522115647792816,-0.014913702383637428,0.8978255987167358,-2.278082847595215,9.75397777557373
1713722597045466062,0.020240023732185364,0.02556634694337845,-0.027696875855326653,1.3299790620803833,-1.3287819623947144,9.837774276733398
1713722597055466062,0.04687163606286049,0.1203748807311058,-0.04687163606286049,0.7673416137695312,-1.4161702394485474,9.216479301452637
1713722597064466062,0.058589544147253036,0.11824434995651245,-0.04580637067556381,-0.43933600187301636,-1.8040308952331543,8.973467826843262
1713722597074466062,0.015978965908288956,0.05645901337265968,-0.013848437927663326,-0.6560112833976746,-1.7381904125213623,9.478644371032715
1713722597083466062,-0.02556634694337845,-0.02130528911948204,-0.023435818031430244,-0.3064578175544739,-1.0510544776916504,10.327388763427734
1713722597093466062,-0.06285060197114944,-0.052197955548763275,-0.006391586735844612,-0.4129997789859772,-0.711077868938446,10.4542818069458
1713722597102466062,-0.06604639440774918,-0.07350324839353561,-0.012783173471689224,-0.28131869435310364,-1.0091559886932373,9.956287384033203
1713722597112466062,-0.03515372797846794,-0.05006742849946022,0.0,0.09696516394615173,-0.8487445116043091,9.81143856048584
1713722597122466062,0.017044231295585632,0.00532632227987051,-0.017044231295585632,0.4357447028160095,-0.33518823981285095,9.96825885772705
1713722597131466062,0.052197955548763275,0.0788295716047287,-0.020240023732185364,0.12330138683319092,0.40701428055763245,10.759542465209961
1713722597141466062,0.10013485699892044,0.10439591109752655,-0.015978965908288956,-0.38307225704193115,0.729034423828125,10.654197692871094
1713722597150466062,0.09800432622432709,0.07243797928094864,-0.003195793367922306,-0.667982280254364,1.1013327836990356,10.271124839782715
1713722597160466062,0.12463594228029251,0.006391586735844612,0.01065264455974102,-0.8008604645729065,1.7573440074920654,9.655815124511719
1713722597170466062,0.1065264418721199,-0.05432848632335663,0.01810949482023716,-0.6488286256790161,2.2661118507385254,9.091980934143066
1713722597179466062,0.08202536404132843,-0.08202536404132843,0.027696875855326653,-0.2214636504650116,2.6850972175598145,9.314641952514648
1713722597189466062,0.04687163606286049,-0.06817692518234253,0.022370552644133568,0.31842881441116333,2.7246015071868896,8.860939979553223
1713722597198466062,-0.01065264455974102,-0.026631610468029976,0.009587380103766918,0.6655880808830261,2.669534921646118,8.768763542175293
1713722597207211908,-0.0649811327457428,0.011717909015715122,0.004261057823896408,0.5506663918495178,2.6001029014587402,9.461884498596191
1713722597216211908,-0.09693906456232071,0.041545312851667404,0.002130528911948204,0.37828385829925537,2.279279947280884,9.758766174316406
1713722597226211908,-0.1257012039422989,0.05432848632335663,0.001065264455974102,0.2777273952960968,1.7345991134643555,9.840168952941895
1713722597236211908,-0.13635385036468506,0.052197955548763275,-0.004261057823896408,0.06703764945268631,1.1982979774475098,10.034099578857422
1713722597246211908,-0.09906959533691406,0.019174760207533836,-0.007456851191818714,-0.3387795388698578,0.40222588181495667,10.126276016235352
1713722597255211908,-0.0511326938867569,-0.03941478580236435,0.004261057823896408,-0.5159504413604736,-0.15322890877723694,10.002974510192871
1713722597265211908,-0.004261057823896408,-0.0649811327457428,0.017044231295585632,0.16879121959209442,0.16998831927776337,9.78869342803955
1713722597274211908,0.049002163112163544,-0.04261057823896408,-0.011717909015715122,0.6177040338516235,0.4429273009300232,9.215282440185547
1713722597283211908,0.03195793181657791,0.02556634694337845,-0.015978965908288956,0.5183446407318115,0.3974374830722809,8.87171459197998
1713722597293211908,-0.030892668291926384,0.07350324839353561,-0.030892668291926384,0.3818751573562622,0.333991140127182,10.012551307678223
1713722597303211908,-0.12463594228029251,0.08628641813993454,-0.027696875855326653,0.04668693244457245,-0.35075053572654724,11.744756698608398
1713722597313211908,-0.08415588736534119,-0.009587380103766918,-0.027696875855326653,-0.8188169598579407,-1.7274165153503418,11.778275489807129
1713722597322211908,-0.05432848632335663,-0.12783172726631165,0.009587380103766918,-1.4832079410552979,-2.2457611560821533,9.911994934082031
1713722597332211908,0.055393751710653305,-0.14168016612529755,0.019174760207533836,-0.021547814831137657,-0.7326257228851318,9.983820915222168
1713722597341211908,0.19600865244865417,-0.06285060197114944,-0.029827404767274857,1.382651448249817,0.5770025849342346,9.246406555175781
1713722597351211908,0.19174760580062866,0.052197955548763275,-0.03621898964047432,1.059434175491333,0.6931213736534119,7.535749912261963
1713722597360211908,0.11185276508331299,0.12889699637889862,-0.03515372797846794,0.3794809579849243,1.0211269855499268,8.87291145324707
1713722597371211908,-0.001065264455974102,0.13848437368869781,-0.027696875855326653,-0.20111294090747833,1.0869675874710083,9.866504669189453
1713722597380211908,-0.17044231295585632,0.10120011866092682,-0.007456851191818714,-0.5590460896492004,0.7398083209991455,10.304643630981445
1713722597389211908,-0.260989785194397,0.026631610468029976,-0.01810949482023716,-0.6655880808830261,0.20709843933582306,10.913968086242676
1713722597399211908,-0.16298545897006989,-0.11717908829450607,-0.003195793367922306,-1.48081374168396,-1.113303780555725,9.066842079162598
1713722597408211908,-0.13315805792808533,-0.17470337450504303,0.02556634694337845,-0.7864952683448792,-1.1683703660964966,8.683769226074219
1713722597418211908,0.05645901337265968,-0.1342233121395111,-0.011717909015715122,1.1899182796478271,-0.04189852997660637,8.935160636901855
1713722597427211908,0.02130528911948204,0.006391586735844612,-0.014913702383637428,1.5155296325683594,0.4225766062736511,10.351330757141113
1713722597438211908,-0.009587380103766918,0.12676647305488586,-0.03621898964047432,1.0642226934432983,0.0347159244120121,12.038045883178711
1713722597446211908,-0.092678003013134,0.18429075181484222,-0.026631610468029976,0.39624038338661194,-0.9277531504631042,12.539630889892578
1713722597456211908,0.029827404767274857,0.04687163606286049,-0.03621898964047432,-1.459265947341919,-2.0254945755004883,11.282675743103027
1713722597466211908,0.04580637067556381,-0.05326322093605995,0.020240023732185364,-1.3503297567367554,-1.7597382068634033,8.469488143920898
1713722597475211908,0.222640261054039,-0.1257012039422989,-0.017044231295585632,0.4129997789859772,-0.1975216418504715,7.94755220413208
1713722597485211908,0.18322548270225525,-0.0788295716047287,-0.041545312851667404,0.628477931022644,1.058237075805664,8.323442459106445
1713722597495211908,0.11504855751991272,-0.026631610468029976,-0.05752427875995636,0.7769184112548828,1.5981296300888062,8.785523414611816
1713722597504211908,-0.03515372797846794,0.011717909015715122,-0.05326322093605995,0.8164227604866028,1.2940659523010254,9.470264434814453
1713722597514211908,-0.16511598229408264,0.03515372797846794,-0.06817692518234253,0.7984662652015686,1.036689281463623,9.809043884277344
1713722597523211908,-0.25779399275779724,0.06072007119655609,-0.06178533658385277,0.790086567401886,0.7266402244567871,9.23563289642334
1713722597533211908,-0.25779399275779724,0.08096009492874146,-0.08202536404132843,0.8295908570289612,0.14724339544773102,9.5624418258667
1713722597542211908,-0.1257012039422989,0.019174760207533836,-0.10865697264671326,-0.0071826050989329815,-1.2425906658172607,8.822632789611816
1713722597552211908,-0.10546118021011353,-0.04687163606286049,-0.06924218684434891,-0.333991140127182,-1.6831237077713013,10.483012199401855
1713722597562211908,-0.009587380103766918,-0.0649811327457428,-0.09480853378772736,0.5973533391952515,-1.036689281463623,12.691662788391113
1713722597571211908,-0.03195793181657791,0.00532632227987051,-0.1065264418721199,1.1540051698684692,-0.9169792532920837,12.378022193908691
1713722597581211908,0.05432848632335663,0.03941478580236435,-0.14487595856189728,0.6272808313369751,-1.2844891548156738,10.56800651550293
1713722597590211908,0.08309062570333481,0.037284255027770996,-0.1257012039422989,0.21667525172233582,-1.2641384601593018,8.440757751464844
1713722597600211908,0.18429075181484222,0.006391586735844612,-0.14700649678707123,0.6835445761680603,-0.18315643072128296,8.02656078338623
1713722597609211908,0.15020228922367096,0.014913702383637428,-0.16085493564605713,0.871489405632019,0.773327112197876,8.650250434875488
1713722597620211908,0.07030745595693588,0.020240023732185364,-0.18322548270225525,0.7817068696022034,0.9217676520347595,9.205705642700195
1713722597629211908,-0.08096009492874146,0.02556634694337845,-0.18642127513885498,0.7565677165985107,0.6979097723960876,9.569623947143555
1713722597638211908,-0.18748654425144196,0.011717909015715122,-0.20985709130764008,0.667982280254364,0.4824316203594208,9.391256332397461
1713722597648211908,-0.250337153673172,-0.004261057823896408,-0.21092236042022705,0.8295908570289612,0.2059013396501541,9.48462963104248
1713722597657211908,-0.15659387409687042,-0.06391586363315582,-0.2364886999130249,0.5506663918495178,-0.9205705523490906,9.646238327026367
1713722597667211908,-0.13315805792808533,-0.08735168725252151,-0.21624867618083954,0.5602431893348694,-1.8818424940109253,10.38844108581543
1713722597676211908,-0.04687163606286049,-0.03834952041506767,-0.24181503057479858,1.5670050382614136,-1.8519150018692017,12.214019775390625
1713722597687211908,0.04048004746437073,0.04580637067556381,-0.28122982382774353,1.1240776777267456,-1.890222191810608,12.169727325439453
1713722597696211908,0.12250541150569916,0.08202536404132843,-0.2865561246871948,0.16400282084941864,-1.6603788137435913,9.874884605407715
1713722597705211908,0.1768338978290558,0.058589544147253036,-0.287621408700943,0.8427590131759644,-0.5542576909065247,8.588001251220703
1713722597715211908,0.2045307755470276,0.002130528911948204,-0.3206445872783661,1.2066776752471924,0.5446808934211731,8.743624687194824
1713722597724211908,0.1299622654914856,-0.006391586735844612,-0.32277512550354004,0.6476315259933472,0.7984662652015686,8.198943138122559
1713722597734211908,-0.02876213937997818,0.003195793367922306,-0.33236250281333923,0.4297592043876648,0.9576806426048279,9.521739959716797
1713722597744211908,-0.15126754343509674,0.014913702383637428,-0.34088462591171265,0.529118537902832,0.9421183466911316,10.055646896362305
1713722597753211908,-0.2269013226032257,0.012783173471689224,-0.34621095657348633,0.6141127347946167,0.4058171808719635,8.550890922546387
1713722597763211908,-0.23435817658901215,-0.01065264455974102,-0.362189918756485,0.4668693244457245,-0.05267243832349777,9.247604370117188
1713722597773211908,-0.1395496428012848,-0.06817692518234253,-0.36964675784111023,0.29807811975479126,-1.116895079612732,9.956287384033203
1713722597782211908,-0.11078750342130661,-0.07456851005554199,-0.3579288423061371,0.7386112213134766,-2.0147206783294678,11.544840812683105
1713722597792211908,-0.01810949482023716,-0.012783173471689224,-0.3771035969257355,1.304839849472046,-2.098517656326294,13.00171184539795
1713722597801211908,0.06924218684434891,0.05645901337265968,-0.4069310128688812,0.5793967843055725,-2.270900249481201,10.712855339050293
1713722597811211908,0.1299622654914856,0.08522115647792816,-0.3888215124607086,0.3842693567276001,-1.5514426231384277,8.969876289367676
1713722597820211908,0.22157500684261322,0.04580637067556381,-0.4133225977420807,1.059434175491333,-0.0694318488240242,8.520963668823242
1713722597830211908,0.19174760580062866,0.023435818031430244,-0.41545313596725464,0.7769184112548828,1.013944387435913,8.763975143432617
1713722597839211908,0.09374327212572098,0.013848437927663326,-0.42930155992507935,0.19273322820663452,1.181538462638855,9.157821655273438
1713722597849211908,-0.06391586363315582,0.02130528911948204,-0.4229099750518799,0.11372458189725876,0.8750807046890259,9.187748908996582
1713722597859211908,-0.1992044448852539,0.01810949482023716,-0.4356931447982788,0.2801215946674347,0.7206547260284424,9.105149269104004
1713722597869211908,-0.2631203234195709,0.009587380103766918,-0.4303668439388275,0.40940847992897034,0.31124621629714966,8.93276596069336
1713722597878211908,-0.18855179846286774,-0.05432848632335663,-0.44634580612182617,0.14006079733371735,-0.9026139974594116,9.349357604980469
1713722597888211908,-0.14594122767448425,-0.1022653877735138,-0.41971418261528015,-0.2238578498363495,-2.070984363555908,11.470620155334473
1713722597897211908,-0.03195793181657791,-0.044741105288267136,-0.407996267080307,0.4572925269603729,-2.366668224334717,13.162123680114746
1713722597907211908,0.0649811327457428,0.052197955548763275,-0.45273739099502563,0.9097966551780701,-1.9357120990753174,11.711236953735352
1713722597916211908,0.14274543523788452,0.1299622654914856,-0.43888893723487854,0.4381389021873474,-1.0821791887283325,9.17817211151123
1713722597926211908,0.1992044448852539,0.1161138266324997,-0.4548678994178772,0.3687070608139038,-0.028730420395731926,8.202534675598145
1713722597936211908,0.17789916694164276,0.058589544147253036,-0.45167210698127747,0.23822306096553802,0.7960720658302307,8.366538047790527
1713722597945211908,0.07563377171754837,-0.013848437927663326,-0.4633900225162506,-0.23343466222286224,1.0007762908935547,9.014169692993164
1713722597955211908,-0.06817692518234253,-0.047936901450157166,-0.43888893723487854,-0.21308395266532898,0.7960720658302307,9.774328231811523
1713722597964211908,-0.1949433982372284,-0.05752427875995636,-0.45273739099502563,0.21188685297966003,0.5626373887062073,9.515754699707031
1713722597974211908,-0.25246766209602356,-0.02556634694337845,-0.44208472967147827,0.6943184733390808,0.2693476974964142,8.919598579406738
1713722597983211908,-0.19174760580062866,-0.020240023732185364,-0.471912145614624,0.6129156351089478,-0.689530074596405,9.613916397094727
1713722597994211908,-0.10013485699892044,-0.03621898964047432,-0.4538026452064514,-0.026336219161748886,-1.890222191810608,11.329361915588379
1713722598003211908,-0.02876213937997818,-0.014913702383637428,-0.436758428812027,0.13766659796237946,-2.116474151611328,12.126631736755371
1713722598012211908,0.06072007119655609,0.05645901337265968,-0.4538026452064514,0.6500257253646851,-1.522712230682373,11.183316230773926
1713722598022211908,0.1161138266324997,0.12144014239311218,-0.4644553065299988,0.48722004890441895,-0.8667010068893433,9.135076522827148
1713722598031211908,0.12783172726631165,0.12250541150569916,-0.4580637216567993,0.25977087020874023,0.016759412363171577,8.487444877624512
1713722598041211908,0.1438107043504715,0.06391586363315582,-0.4601942300796509,-0.09696516394615173,0.6859387755393982,8.65863037109375
1713722598050211908,0.05752427875995636,0.008522115647792816,-0.44741106033325195,-0.4513069987297058,0.7697358131408691,9.206902503967285
1713722598061211908,-0.05965480953454971,-0.027696875855326653,-0.4442152678966522,-0.3687070608139038,0.6607996821403503,9.9586820602417
1713722598069211908,-0.1619201898574829,-0.02876213937997818,-0.44315001368522644,-0.1256955862045288,0.5039794445037842,9.398438453674316
1713722598079211908,-0.2087918221950531,-0.023435818031430244,-0.44741106033325195,0.2753331959247589,0.181959331035614,9.253589630126953
1713722598089211908,-0.1438107043504715,-0.04580637067556381,-0.4548678994178772,0.16160860657691956,-0.7146691679954529,9.728838920593262
1713722598098211908,-0.09374327212572098,-0.049002163112163544,-0.4303668439388275,-0.46327802538871765,-1.6364368200302124,11.275492668151855
1713722598108211908,-0.009587380103766918,-0.022370552644133568,-0.4324973523616791,-0.48123452067375183,-1.968033790588379,12.449848175048828
1713722598118211908,0.07563377171754837,0.030892668291926384,-0.4229099750518799,-0.11851298063993454,-1.5502455234527588,10.729615211486816
1713722598127211908,0.1257012039422989,0.07563377171754837,-0.41012680530548096,0.39145198464393616,-0.22026655077934265,9.028534889221191
1713722598137211908,0.20133498311042786,0.08522115647792816,-0.41438785195350647,0.32441431283950806,0.6811503767967224,7.791929244995117
1713722598146211908,0.13741911947727203,0.09906959533691406,-0.40160468220710754,-0.43095630407333374,0.8451532125473022,8.154650688171387
1713722598156211908,0.019174760207533836,0.07669904083013535,-0.39734363555908203,-0.8164227604866028,0.910993754863739,10.071208953857422
1713722598165211908,-0.12889699637889862,0.020240023732185364,-0.37284255027770996,-1.0247182846069336,0.7003039717674255,10.427945137023926
1713722598175211908,-0.22477079927921295,-0.03834952041506767,-0.3430151343345642,-0.9385270476341248,0.31842881441116333,10.18613052368164
1713722598185211908,-0.1672465205192566,-0.09161274135112762,-0.3344930410385132,-0.8619126081466675,-0.48961424827575684,8.665812492370605
1713722598194211908,-0.13102751970291138,-0.08628641813993454,-0.30786141753196716,-0.6272808313369751,-0.9205705523490906,8.553285598754883
1713722598204211908,-0.04261057823896408,-0.026631610468029976,-0.31212249398231506,-0.02274491637945175,-0.5758054852485657,10.450690269470215
1713722598213211908,-0.01810949482023716,0.08628641813993454,-0.3099919557571411,0.03950432687997818,-0.5925649404525757,12.168529510498047
1713722598223211908,0.07776430249214172,0.11078750342130661,-0.3185140788555145,-1.2413935661315918,-1.335964560508728,11.54005241394043
1713722598233211908,0.0884169489145279,0.06391586363315582,-0.2599245309829712,-1.765723705291748,-1.3515268564224243,9.255983352661133
1713722598242211908,0.15233281254768372,-0.011717909015715122,-0.2556634545326233,-0.712274968624115,-0.20470423996448517,9.012971878051758
1713722598252211908,0.1022653877735138,-0.02876213937997818,-0.2407497614622116,-0.4129997789859772,0.6093243360519409,9.738415718078613
1713722598261211908,0.013848437927663326,-0.007456851191818714,-0.23542344570159912,-0.6476315259933472,0.547075092792511,9.657011985778809
1713722598271211908,-0.092678003013134,0.026631610468029976,-0.2130528837442398,-0.5781996846199036,0.3148375153541565,9.149441719055176
1713722598281211908,-0.14274543523788452,0.03941478580236435,-0.20240023732185364,-0.48722004890441895,0.32202011346817017,9.372102737426758
1713722598290211908,-0.06604639440774918,0.00532632227987051,-0.1896170675754547,-1.0091559886932373,-0.33997663855552673,8.737639427185059
1713722598300211908,-0.06072007119655609,-0.026631610468029976,-0.15446333587169647,-1.1432312726974487,-0.750582218170166,9.301473617553711
1713722598309211908,-0.007456851191818714,-0.03515372797846794,-0.15020228922367096,-0.5315127968788147,-0.43335050344467163,10.911574363708496
1713722598319211908,-0.04261057823896408,0.013848437927663326,-0.13528858125209808,-0.2214636504650116,-0.5793967843055725,12.076353073120117
1713722598329211908,0.024501081556081772,0.02130528911948204,-0.14061491191387177,-1.039083480834961,-1.3634978532791138,11.421539306640625
1713722598338211908,0.055393751710653305,0.007456851191818714,-0.09587380290031433,-1.6519991159439087,-1.4113818407058716,8.633491516113281
1713722598347211908,0.14700649678707123,-0.01065264455974102,-0.08948221057653427,-0.6105214357376099,0.04429272934794426,8.04691219329834
1713722598357211908,0.17044231295585632,0.015978965908288956,-0.08735168725252151,0.07422025501728058,1.1073182821273804,8.844181060791016
1713722598367211908,0.08948221057653427,0.055393751710653305,-0.08096009492874146,-0.25977087020874023,0.99479079246521,9.447519302368164
1713722598377211908,-0.07243797928094864,0.07563377171754837,-0.06604639440774918,-0.6248866319656372,0.3926490843296051,10.63624095916748
1713722598386211908,-0.21092236042022705,0.049002163112163544,-0.05752427875995636,-0.7314286231994629,-0.4189852774143219,11.84890365600586
1713722598396211908,-0.11504855751991272,-0.07776430249214172,-0.041545312851667404,-1.6915035247802734,-1.8291701078414917,9.757569313049316
1713722598405211908,-0.07456851005554199,-0.14274543523788452,0.012783173471689224,-1.6208745241165161,-1.7381904125213623,7.940369606018066
1713722598415211908,0.12783172726631165,-0.11078750342130661,-0.014913702383637428,0.19632454216480255,-0.13168108463287354,9.030928611755371
1713722598424211908,0.14168016612529755,0.020240023732185364,-0.024501081556081772,0.9289502501487732,0.628477931022644,10.244789123535156
1713722598434211908,0.0884169489145279,0.12144014239311218,-0.03515372797846794,0.529118537902832,0.38786065578460693,10.667365074157715
1713722598443211908,-0.047936901450157166,0.17789916694164276,-0.009587380103766918,-0.061052143573760986,-0.16998831927776337,10.6709566116333
1713722598453211908,-0.08309062570333481,0.11185276508331299,-0.011717909015715122,-1.1288660764694214,-0.4752490222454071,10.91037654876709
1713722598463211908,-0.013848437927663326,-0.014913702383637428,0.03941478580236435,-1.9189525842666626,-0.8008604645729065,8.461108207702637
1713722598472211908,0.03195793181657791,-0.05752427875995636,0.05432848632335663,-1.0821791887283325,-0.06823474913835526,8.11514663696289
1713722598482211908,0.13741911947727203,-0.04261057823896408,0.047936901450157166,-0.2585737705230713,0.6452373266220093,8.890868186950684
1713722598491211908,0.03621898964047432,0.027696875855326653,0.047936901450157166,-0.21547815203666687,0.386663556098938,9.75278091430664
1713722598501211908,-0.09800432622432709,0.07350324839353561,0.05432848632335663,-0.23942016065120697,-0.1364694982767105,12.077549934387207
1713722598510211908,-0.14168016612529755,0.03302319720387459,0.05006742849946022,-1.1516109704971313,-0.9660603404045105,11.921927452087402
1713722598520211908,-0.0511326938867569,-0.09480853378772736,0.07989483326673508,-2.1942858695983887,-1.7573440074920654,9.07641887664795
1713722598529211908,0.009587380103766918,-0.1299622654914856,0.12889699637889862,-1.0055646896362305,-0.9373299479484558,8.62630844116211
1713722598539211908,0.20026971399784088,-0.08628641813993454,0.09161274135112762,0.2932896912097931,0.2190694510936737,8.614337921142578
1713722598549211908,0.11930961906909943,0.04261057823896408,0.11504855751991272,0.18794482946395874,0.4297592043876648,9.190142631530762
1713722598558211908,0.02876213937997818,0.12889699637889862,0.12144014239311218,-0.08259996026754379,0.5626373887062073,11.174936294555664
1713722598569211908,-0.10759171098470688,0.15446333587169647,0.13528858125209808,-0.6643909811973572,0.24420857429504395,10.382455825805664
1713722598577211908,-0.11185276508331299,0.06604639440774918,0.148071750998497,-1.6484078168869019,-0.35314473509788513,9.9371337890625
1713722598587211908,-0.05432848632335663,-0.0511326938867569,0.19281286001205444,-2.2194249629974365,-0.6943184733390808,8.094796180725098
1713722598597211908,0.007456851191818714,-0.08309062570333481,0.1992044448852539,-0.9959878921508789,0.040701426565647125,8.275558471679688
1713722598606211908,0.07030745595693588,-0.06072007119655609,0.185356006026268,0.04908113554120064,0.35913026332855225,9.849745750427246
1713722598616211908,-0.027696875855326653,0.014913702383637428,0.1810949593782425,0.028730420395731926,-0.26575639843940735,10.972625732421875
1713722598626211908,-0.13209278881549835,0.044741105288267136,0.18429075181484222,0.3280056416988373,-0.8367734551429749,12.830526351928711
1713722598635211908,-0.03515372797846794,-0.03941478580236435,0.17257283627986908,-0.9612719416618347,-1.9536685943603516,10.825383186340332
1713722598645211908,-0.013848437927663326,-0.08202536404132843,0.2407497614622116,-1.703474521636963,-1.8136078119277954,8.11634349822998
1713722598654211908,0.16298545897006989,-0.04687163606286049,0.21518342196941376,-0.40222588181495667,-0.208295539021492,7.8517842292785645
1713722598664211908,0.15233281254768372,0.05006742849946022,0.2269013226032257,0.20111294090747833,0.8966284990310669,9.281123161315918
1713722598673211908,0.08948221057653427,0.10865697264671326,0.22157500684261322,-0.24420857429504395,0.9660603404045105,10.102334022521973
1713722598684211908,-0.07243797928094864,0.12250541150569916,0.24927188456058502,-0.8176198601722717,0.3890577554702759,10.089165687561035
1713722598693211908,-0.1672465205192566,0.03941478580236435,0.2514024078845978,-1.182735562324524,0.08858545869588852,11.377245903015137
1713722598702211908,-0.11291802674531937,-0.09480853378772736,0.2908172011375427,-1.964442491531372,-0.8259995579719543,9.281123161315918
1713722598712211908,-0.09374327212572098,-0.12463594228029251,0.3153182864189148,-1.404199242591858,-1.2222399711608887,8.33182144165039
1713722598721211908,0.017044231295585632,-0.07989483326673508,0.28975191712379456,0.15083470940589905,-0.7841010689735413,10.032901763916016
1713722598731211908,-0.02130528911948204,0.019174760207533836,0.2908172011375427,0.7314286231994629,-0.7218518257141113,11.09113883972168
1713722598741211908,0.01810949482023716,0.05752427875995636,0.2641855776309967,0.04189852997660637,-0.9971849918365479,11.554417610168457
1713722598750211908,0.06072007119655609,0.030892668291926384,0.287621408700943,-0.8271966576576233,-1.2449848651885986,9.685742378234863
1713722598760211908,0.09587380290031433,0.006391586735844612,0.3067961633205414,-0.729034423828125,-0.38786065578460693,8.89685344696045
1713722598769211908,0.14594122767448425,0.022370552644133568,0.2929477095603943,-0.45489832758903503,0.416591078042984,9.003395080566406
1713722598779211908,0.07456851005554199,0.04367584362626076,0.3014698326587677,-0.31124621629714966,0.3902548849582672,9.244012832641602
1713722598789211908,-0.027696875855326653,0.022370552644133568,0.30466562509536743,-0.243011474609375,0.28730419278144836,9.889249801635742
1713722598798211908,-0.1161138266324997,-0.012783173471689224,0.3067961633205414,-0.36990416049957275,0.35314473509788513,9.690530776977539
1713722598808211908,-0.11185276508331299,-0.029827404767274857,0.31212249398231506,-0.6260837316513062,0.3064578175544739,8.821435928344727
1713722598817211908,-0.08202536404132843,-0.04261057823896408,0.30786141753196716,-0.6883329749107361,-0.2190694510936737,8.596381187438965
1713722598827211908,-0.0649811327457428,-0.03621898964047432,0.31212249398231506,-0.22505494952201843,-0.7266402244567871,10.654197692871094
1713722598836211908,-0.037284255027770996,-0.047936901450157166,0.2908172011375427,0.36750996112823486,-1.479616641998291,12.618639945983887
1713722598846211908,-0.024501081556081772,-0.09161274135112762,0.2918824553489685,0.5207388401031494,-2.231395959854126,11.997344970703125
1713722598856211908,0.017044231295585632,-0.0884169489145279,0.287621408700943,0.9014168977737427,-1.7860743999481201,10.008959770202637
1713722598866211908,0.11930961906909943,0.003195793367922306,0.258859246969223,1.0031704902648926,-0.4620809257030487,8.286332130432129
1713722598875211908,0.18322548270225525,0.1438107043504715,0.2407497614622116,0.44173020124435425,0.5674257874488831,8.200140953063965
1713722598884211908,0.18322548270225525,0.18322548270225525,0.22477079927921295,-0.08259996026754379,0.7864952683448792,8.916007041931152
1713722598894211908,0.08202536404132843,0.10865697264671326,0.23968449234962463,-0.49320554733276367,0.5650315880775452,9.75397777557373
1713722598904211908,-0.07030745595693588,-0.012783173471689224,0.23861923813819885,-0.49320554733276367,0.4273650050163269,10.517727851867676
1713722598913211908,-0.16511598229408264,-0.11078750342130661,0.24181503057479858,-0.20350714027881622,0.31603461503982544,9.5408935546875
1713722598923211908,-0.18322548270225525,-0.14168016612529755,0.23755396902561188,0.0802057534456253,0.0071826050989329815,8.699331283569336
1713722598932211908,-0.11824434995651245,-0.12250541150569916,0.2183792144060135,0.40222588181495667,-0.6440402269363403,9.408015251159668
1713722598942211908,-0.06391586363315582,-0.07776430249214172,0.20026971399784088,0.9864110946655273,-1.302445650100708,10.74876880645752
1713722598952211908,-0.00532632227987051,-0.03195793181657791,0.17363810539245605,1.5526397228240967,-1.5191209316253662,11.678915977478027
1713722598961211908,0.04580637067556381,0.011717909015715122,0.14594122767448425,1.5059528350830078,-1.4149731397628784,10.916362762451172
1713722598971211908,0.08522115647792816,0.06072007119655609,0.1342233121395111,0.9038110971450806,-0.8966284990310669,9.60912799835205
1713722598980211908,0.12783172726631165,0.10333064943552017,0.11930961906909943,0.3387795388698578,-0.11252747476100922,8.983044624328613
1713722598990211908,0.12144014239311218,0.1022653877735138,0.1065264418721199,0.0071826050989329815,0.33039984107017517,9.23682975769043
1713722599000211908,0.06817692518234253,0.03834952041506767,0.10865697264671326,-0.19393032789230347,0.2861070930957794,9.639056205749512
1713722599009211908,-0.02130528911948204,-0.05006742849946022,0.1065264418721199,-0.1173158809542656,0.1843535304069519,9.657011985778809
1713722599018211908,-0.08948221057653427,-0.11291802674531937,0.10439591109752655,0.29209259152412415,0.21787235140800476,9.410409927368164
1713722599028211908,-0.10439591109752655,-0.11185276508331299,0.09587380290031433,0.6967126727104187,0.14844051003456116,8.887276649475098
1713722599037211908,-0.08735168725252151,-0.04048004746437073,0.07776430249214172,0.9852139949798584,-0.10295066982507706,8.938752174377441
1713722599048211908,-0.06285060197114944,0.04048004746437073,0.05645901337265968,1.1097124814987183,-0.5865793824195862,10.613495826721191
1713722599057211908,0.013848437927663326,0.044741105288267136,0.030892668291926384,0.25258827209472656,-1.644816517829895,12.071564674377441
1713722599067211908,0.03621898964047432,-0.009587380103766918,0.05006742849946022,-0.3495534360408783,-2.1763293743133545,11.54124927520752
1713722599076211908,0.07669904083013535,-0.047936901450157166,0.04580637067556381,0.41539397835731506,-1.0330979824066162,10.371681213378906
1713722599085211908,0.1395496428012848,-0.022370552644133568,0.017044231295585632,0.8846575021743774,0.2190694510936737,8.520963668823242
1713722599095211908,0.13528858125209808,0.044741105288267136,0.004261057823896408,0.5506663918495178,0.6584054827690125,7.441178798675537
1713722599105211908,0.07456851005554199,0.08522115647792816,-0.00532632227987051,0.12090718746185303,0.8738836050033569,8.704119682312012
1713722599115211908,-0.03195793181657791,0.06604639440774918,-0.003195793367922306,-0.1867477297782898,0.6631938815116882,10.190918922424316
1713722599124211908,-0.1576591432094574,0.00532632227987051,0.008522115647792816,-0.456095427274704,0.016759412363171577,10.911574363708496
1713722599134211908,-0.1342233121395111,-0.09906959533691406,0.008522115647792816,-0.8152256608009338,-0.9014168977737427,10.27591323852539
1713722599143211908,-0.10759171098470688,-0.16618125140666962,0.03515372797846794,-0.6141127347946167,-1.1432312726974487,8.900444984436035
1713722599153211908,0.026631610468029976,-0.1342233121395111,0.027696875855326653,0.5758054852485657,-0.20949263870716095,9.064447402954102
1713722599162211908,0.09054747968912125,-0.006391586735844612,0.00532632227987051,1.2198457717895508,0.3315969407558441,9.783905029296875
1713722599172211908,0.06391586363315582,0.12144014239311218,-0.011717909015715122,0.9504980444908142,-0.1149216815829277,10.346542358398438
1713722599181211908,-0.04048004746437073,0.18429075181484222,-0.009587380103766918,0.5243301391601562,-0.772130012512207,11.868057250976562
1713722599191211908,-0.004261057823896408,0.06604639440774918,-0.022370552644133568,-0.933738648891449,-1.6400281190872192,11.311406135559082
1713722599201211908,0.007456851191818714,-0.06072007119655609,0.03195793181657791,-1.7764976024627686,-1.6496049165725708,8.722076416015625
1713722599210211908,0.11398329585790634,-0.11185276508331299,0.017044231295585632,-0.35673603415489197,0.22505494952201843,8.583212852478027
1713722599220211908,0.17470337450504303,-0.07456851005554199,0.001065264455974102,0.7374141216278076,1.3419500589370728,8.708908081054688
1713722599229211908,0.1022653877735138,-0.001065264455974102,-0.024501081556081772,0.6117185354232788,0.9469067454338074,8.524555206298828
1713722599240211908,-0.058589544147253036,0.04367584362626076,-0.008522115647792816,0.34835633635520935,0.4991910457611084,10.590750694274902
1713722599249211908,-0.1896170675754547,0.049002163112163544,-0.009587380103766918,0.08379705995321274,-0.090979665517807,11.253945350646973
1713722599258211908,-0.2045307755470276,0.02130528911948204,-0.004261057823896408,-0.6464344263076782,-0.811634361743927,10.643423080444336
1713722599268211908,-0.06604639440774918,-0.08522115647792816,-0.004261057823896408,-1.280897855758667,-1.4867992401123047,8.435969352722168
1713722599277211908,0.023435818031430244,-0.092678003013134,0.047936901450157166,-0.07661445438861847,-0.8140285611152649,8.880093574523926
1713722599287211908,0.1906823366880417,-0.04367584362626076,-0.008522115647792816,1.016338586807251,0.03232172131538391,9.953893661499023
1713722599296211908,0.09054747968912125,0.06604639440774918,0.003195793367922306,0.8188169598579407,-0.11372458189725876,10.110713958740234
1713722599306211908,-0.04580637067556381,0.12144014239311218,-0.017044231295585632,0.5781996846199036,-0.2669534981250763,12.077549934387207
1713722599316211908,-0.1203748807311058,0.08948221057653427,-0.023435818031430244,-0.21428105235099792,-0.5626373887062073,11.943474769592285
1713722599325211908,-0.03302319720387459,-0.04261057823896408,-0.006391586735844612,-1.1348515748977661,-1.1863269805908203,8.60116958618164
1713722599335211908,-0.004261057823896408,-0.09161274135112762,0.02130528911948204,-0.790086567401886,-0.5027823448181152,7.522581577301025
1713722599344211908,0.1619201898574829,-0.07776430249214172,-0.003195793367922306,0.19033902883529663,0.3627215623855591,8.35456657409668
1713722599354211908,0.06817692518234253,0.012783173471689224,-0.006391586735844612,0.6464344263076782,0.34356793761253357,9.637858390808105
1713722599363211908,-0.03621898964047432,0.08096009492874146,-0.006391586735844612,0.6404489278793335,0.31842881441116333,11.75553035736084
1713722599373211908,-0.1438107043504715,0.1022653877735138,-0.014913702383637428,0.24420857429504395,-0.32202011346817017,11.409567832946777
1713722599383211908,-0.04687163606286049,0.0,-0.012783173471689224,-1.0797849893569946,-1.3611036539077759,9.18056583404541
1713722599392211908,-0.023435818031430244,-0.08202536404132843,0.03195793181657791,-1.256955862045288,-1.0761936902999878,7.922413349151611
1713722599402211908,0.15978966653347015,-0.09906959533691406,0.007456851191818714,0.023942016065120697,0.3076549172401428,8.341398239135742
1713722599411211908,0.09800432622432709,-0.01810949482023716,0.001065264455974102,0.5877764821052551,0.9085995554924011,9.821015357971191
1713722599421211908,0.003195793367922306,0.06178533658385277,-0.015978965908288956,0.5781996846199036,0.47165772318840027,11.583148002624512
1713722599430211908,-0.1576591432094574,0.1022653877735138,-0.013848437927663326,0.3543418347835541,-0.5722141861915588,11.295843124389648
1713722599440211908,-0.092678003013134,-0.006391586735844612,-0.029827404767274857,-0.5231330394744873,-1.4449007511138916,10.016142845153809
1713722599450211908,-0.044741105288267136,-0.10333064943552017,0.02876213937997818,-1.1204863786697388,-1.3623007535934448,7.995436668395996
1713722599459211908,0.1299622654914856,-0.11185276508331299,0.013848437927663326,-0.05027823522686958,-0.021547814831137657,8.643068313598633
1713722599469211908,0.18002969026565552,-0.02556634694337845,-0.008522115647792816,0.8032546639442444,0.7924807667732239,9.725247383117676
1713722599479211908,0.09374327212572098,0.06072007119655609,-0.009587380103766918,0.7146691679954529,0.5183446407318115,10.109516143798828
1713722599488211908,-0.06285060197114944,0.11398329585790634,-0.004261057823896408,0.6021417379379272,-0.0802057534456253,11.386822700500488
1713722599497211908,-0.18216021358966827,0.10865697264671326,-0.013848437927663326,0.20350714027881622,-0.5494692921638489,11.82496166229248
1713722599507211908,-0.07563377171754837,0.00532632227987051,-0.013848437927663326,-0.9516951441764832,-1.2509703636169434,8.380903244018555
1713722599517211908,-0.04580637067556381,-0.06072007119655609,0.03195793181657791,-1.1528080701828003,-0.9504980444908142,7.1885905265808105
1713722599526211908,0.14274543523788452,-0.06072007119655609,0.008522115647792816,-0.10295066982507706,0.19153612852096558,8.708908081054688
1713722599536211908,0.07669904083013535,0.019174760207533836,0.006391586735844612,0.5494692921638489,0.7015010714530945,10.5715970993042
1713722599546211908,-0.008522115647792816,0.07989483326673508,-0.011717909015715122,0.5805938839912415,0.14844051003456116,12.060791015625
1713722599556211908,-0.15446333587169647,0.09480853378772736,-0.006391586735844612,0.3447650372982025,-0.8212111592292786,11.993753433227539
1713722599565211908,-0.03941478580236435,-0.029827404767274857,-0.024501081556081772,-1.0127472877502441,-1.9345149993896484,9.950302124023438
1713722599574211908,-0.012783173471689224,-0.10439591109752655,0.04367584362626076,-1.1504138708114624,-1.7286136150360107,8.178592681884766
1713722599584211908,0.20985709130764008,-0.10013485699892044,-0.003195793367922306,0.22026655077934265,-0.090979665517807,8.60356330871582
1713722599594211908,0.19707392156124115,0.004261057823896408,-0.007456851191818714,0.6883329749107361,0.9265560507774353,8.820239067077637
1713722599603211908,0.12250541150569916,0.07137271761894226,-0.019174760207533836,0.6763619780540466,1.0546457767486572,9.946710586547852
1713722599613211908,-0.04580637067556381,0.1065264418721199,-0.006391586735844612,0.39863458275794983,0.5123591423034668,10.562020301818848
1713722599622211908,-0.1906823366880417,0.09587380290031433,-0.007456851191818714,0.07661445438861847,0.3208230137825012,10.36689281463623
1713722599632211908,-0.16298545897006989,0.037284255027770996,-0.011717909015715122,-0.8667010068893433,-0.2190694510936737,9.317035675048828
1713722599642211908,-0.07030745595693588,-0.06178533658385277,0.01065264455974102,-1.4496891498565674,-0.8248024582862854,8.036137580871582
1713722599651211908,0.023435818031430244,-0.07563377171754837,0.02556634694337845,-0.35314473509788513,-0.3495534360408783,9.254786491394043
1713722599661211908,0.08096009492874146,-0.03302319720387459,-0.007456851191818714,0.6308721303939819,-0.1628057062625885,11.318588256835938
1713722599671211908,0.0,0.03941478580236435,-0.01065264455974102,0.7805097699165344,-1.0773907899856567,11.45146656036377
1713722599680211908,-0.08948221057653427,0.05645901337265968,-0.02876213937997818,0.11851298063993454,-1.3766659498214722,12.890381813049316
1713722599689211908,0.041545312851667404,-0.02556634694337845,-0.03302319720387459,-1.0450689792633057,-1.667561411857605,10.080785751342773
1713722599699211908,0.06178533658385277,-0.06285060197114944,0.02556634694337845,-0.4189852774143219,-1.0654197931289673,8.08043098449707
1713722599708444055,0.26631611585617065,-0.052197955548763275,-0.027696875855326653,0.4908113479614258,0.19153612852096558,7.930792808532715
1713722599717444055,0.18216021358966827,0.03834952041506767,-0.01065264455974102,0.4704606235027313,0.8607155084609985,8.154650688171387
1713722599727444055,0.0788295716047287,0.07456851005554199,-0.037284255027770996,0.35075053572654724,1.2509703636169434,10.488997459411621
1713722599736444055,-0.09587380290031433,0.07989483326673508,-0.01065264455974102,0.016759412363171577,0.7481880187988281,10.484209060668945
1713722599746444055,-0.23435817658901215,0.04261057823896408,-0.014913702383637428,-0.26815059781074524,0.21667525172233582,11.095927238464355
1713722599755444055,-0.1257012039422989,-0.06604639440774918,-0.011717909015715122,-0.9660603404045105,-0.7972691655158997,8.584409713745117
1713722599765444055,-0.09480853378772736,-0.1257012039422989,0.027696875855326653,-1.0989385843276978,-1.1216834783554077,7.692569732666016
1713722599775444055,0.07776430249214172,-0.10120011866092682,0.0,0.1364694982767105,-0.26575639843940735,9.697713851928711
1713722599784444055,0.05326322093605995,0.007456851191818714,-0.007456851191818714,1.0330979824066162,0.10055647045373917,11.376049041748047
1713722599794444055,0.013848437927663326,0.09161274135112762,-0.034088462591171265,0.8858546018600464,-0.4010287821292877,11.841721534729004
1713722599803444055,-0.017044231295585632,0.1022653877735138,-0.03302319720387459,-0.10295066982507706,-1.092953085899353,10.973823547363281
1713722599813444055,0.05326322093605995,-0.003195793367922306,-0.02556634694337845,-1.0330979824066162,-1.1540051698684692,9.2033109664917
1713722599823444055,0.10120011866092682,-0.058589544147253036,0.015978965908288956,-0.5135562419891357,-0.08259996026754379,8.62391471862793
1713722599832444055,0.1906823366880417,-0.05965480953454971,-0.020240023732185364,0.24660277366638184,0.6859387755393982,8.762778282165527
1713722599842444055,0.09906959533691406,-0.003195793367922306,-0.012783173471689224,0.3902548849582672,0.45250412821769714,8.63708209991455
1713722599852444055,-0.05432848632335663,0.03515372797846794,-0.02130528911948204,0.43694180250167847,0.28969839215278625,11.009736061096191
1713722599861444055,-0.17257283627986908,0.05326322093605995,-0.027696875855326653,0.15083470940589905,-0.0586579404771328,10.915164947509766
1713722599870444055,-0.11717908829450607,-0.003195793367922306,-0.026631610468029976,-0.6416460275650024,-0.9169792532920837,9.549273490905762
1713722599880444055,-0.05006742849946022,-0.08628641813993454,0.003195793367922306,-1.1180921792984009,-1.1348515748977661,8.47667121887207
1713722599890444055,0.09587380290031433,-0.08628641813993454,0.012783173471689224,-0.0694318488240242,0.002394201699644327,8.850166320800781
1713722599899444055,0.1257012039422989,-0.011717909015715122,-0.019174760207533836,0.8463503122329712,0.5243301391601562,10.94030475616455
1713722599909444055,0.06285060197114944,0.07776430249214172,-0.022370552644133568,0.6105214357376099,-0.18794482946395874,11.125855445861816
1713722599919444055,-0.08522115647792816,0.12463594228029251,-0.02556634694337845,0.22744916379451752,-0.751779317855835,11.221623420715332
1713722599928444055,-0.01810949482023716,0.02876213937997818,-0.04261057823896408,-0.7781155109405518,-1.1659761667251587,10.15141487121582
1713722599938444055,0.004261057823896408,-0.05965480953454971,0.017044231295585632,-1.2617442607879639,-0.970848798751831,7.969099998474121
1713722599947444055,0.14274543523788452,-0.09374327212572098,-0.00532632227987051,-0.2561795711517334,0.23822306096553802,8.146270751953125
1713722599957444055,0.1395496428012848,-0.03941478580236435,-0.006391586735844612,0.5805938839912415,1.059434175491333,9.673771858215332
1713722599966444055,0.05965480953454971,0.02556634694337845,-0.023435818031430244,0.5949591398239136,0.7864952683448792,10.431536674499512
1713722599977444055,-0.10120011866092682,0.08202536404132843,-0.011717909015715122,0.38307225704193115,0.05147533491253853,10.799046516418457
1713722599986444055,-0.17470337450504303,0.0649811327457428,-0.027696875855326653,-0.23582886159420013,-0.4357447028160095,12.230779647827148
1713722599995444055,-0.03621898964047432,-0.047936901450157166,-0.007456851191818714,-1.314416766166687,-1.42454993724823,9.048885345458984
1713722600005444055,-0.003195793367922306,-0.09906959533691406,0.03195793181657791,-0.8092401623725891,-1.0031704902648926,7.612364292144775
1713722600014444055,0.1906823366880417,-0.08522115647792816,-0.008522115647792816,0.5195417404174805,0.1628057062625885,8.695740699768066
1713722600024444055,0.09693906456232071,0.020240023732185364,-0.00532632227987051,0.8559271097183228,0.3519476354122162,9.927556991577148
1713722600033444055,-0.012783173471689224,0.09587380290031433,-0.026631610468029976,0.6105214357376099,0.2669534981250763,12.231976509094238
1713722600044444055,-0.13741911947727203,0.10972223430871964,-0.02556634694337845,0.16879121959209442,-0.36750996112823486,11.753135681152344
1713722600053444055,-0.04687163606286049,-0.02130528911948204,-0.02876213937997818,-1.0797849893569946,-1.3838485479354858,9.26795482635498
1713722600062444055,-0.020240023732185364,-0.09906959533691406,0.024501081556081772,-1.2557587623596191,-1.070208191871643,7.6949639320373535
1713722600072444055,0.1757686287164688,-0.11291802674531937,-0.01065264455974102,0.12689268589019775,0.3663128614425659,8.103175163269043
1713722600081444055,0.1299622654914856,-0.027696875855326653,-0.012783173471689224,0.7362170219421387,1.0821791887283325,9.63306999206543
1713722600091444055,0.05752427875995636,0.044741105288267136,-0.029827404767274857,0.7194576263427734,0.8619126081466675,10.894814491271973
1713722600101444055,-0.10333064943552017,0.092678003013134,-0.011717909015715122,0.3423708379268646,0.25019407272338867,10.72722053527832
1713722600110444055,-0.16298545897006989,0.08309062570333481,-0.019174760207533836,-0.016759412363171577,-0.14245499670505524,11.414356231689453
1713722600120444055,-0.03621898964047432,-0.023435818031430244,-0.013848437927663326,-1.4161702394485474,-1.1408370733261108,8.596381187438965
1713722600129444055,-0.01810949482023716,-0.08096009492874146,0.03195793181657791,-1.259350061416626,-0.8463503122329712,7.920019149780273
1713722600139444055,0.13635385036468506,-0.0884169489145279,-0.00532632227987051,0.29807811975479126,0.08379705995321274,8.919598579406738
1713722600148444055,0.03302319720387459,0.002130528911948204,0.004261057823896408,0.5985504388809204,0.16400282084941864,10.72602367401123
1713722600158444055,-0.05645901337265968,0.06924218684434891,-0.01065264455974102,0.5602431893348694,-0.07182604819536209,12.502521514892578
1713722600168444055,-0.10013485699892044,0.06604639440774918,-0.015978965908288956,-0.333991140127182,-0.6572083830833435,11.422736167907715
1713722600177444055,0.006391586735844612,-0.047936901450157166,-0.003195793367922306,-1.256955862045288,-1.2509703636169434,8.704119682312012
1713722600187444055,0.0649811327457428,-0.09587380290031433,0.03515372797846794,-0.5949591398239136,-0.3734954595565796,7.891288757324219
1713722600196444055,0.2322276532649994,-0.08202536404132843,-0.006391586735844612,0.5614402890205383,0.7158662676811218,8.710105895996094
1713722600206444055,0.13635385036468506,-0.003195793367922306,-0.006391586735844612,0.669179379940033,0.5734112858772278,9.10993766784668
1713722600216444055,-0.003195793367922306,0.0511326938867569,0.0,0.3770867586135864,0.365115761756897,11.388020515441895
1713722600225444055,-0.1533980816602707,0.07243797928094864,0.004261057823896408,0.1496376097202301,0.04189852997660637,10.96664047241211
1713722600235444055,-0.20985709130764008,0.0649811327457428,0.009587380103766918,-0.061052143573760986,-0.22266075015068054,10.5715970993042
1713722600244444055,-0.05432848632335663,-0.03621898964047432,-0.00532632227987051,-1.1228805780410767,-0.9361328482627869,8.20851993560791
1713722600254444055,-0.009587380103766918,-0.06604639440774918,0.049002163112163544,-0.9313444495201111,-0.5482721924781799,7.890091419219971
1713722600264444055,0.14913702011108398,-0.06924218684434891,-0.002130528911948204,0.38546645641326904,0.1149216815829277,9.557653427124023
1713722600273444055,0.04261057823896408,0.01810949482023716,0.012783173471689224,0.7098807692527771,-0.0694318488240242,11.103110313415527
1713722600283444055,-0.0649811327457428,0.07030745595693588,-0.01065264455974102,0.6931213736534119,-0.12210428714752197,12.563572883605957
1713722600292444055,-0.07776430249214172,0.058589544147253036,-0.01065264455974102,-0.23343466222286224,-0.5590460896492004,10.65898609161377
1713722600302444055,0.00532632227987051,-0.03621898964047432,0.001065264455974102,-1.1707645654678345,-0.9409212470054626,7.81108283996582
1713722600312444055,0.08202536404132843,-0.06604639440774918,0.03195793181657791,-0.5434837937355042,-0.07781155407428741,8.02536392211914
1713722600321444055,0.185356006026268,-0.04687163606286049,0.006391586735844612,0.26575639843940735,0.7673416137695312,9.502586364746094
1713722600331444055,0.0884169489145279,0.024501081556081772,0.015978965908288956,0.22026655077934265,0.5339069962501526,9.886856079101562
1713722600340444055,-0.07030745595693588,0.07137271761894226,0.024501081556081772,-0.004788403399288654,0.22505494952201843,11.625045776367188
1713722600350444055,-0.16937704384326935,0.06711165606975555,0.02130528911948204,-0.2693476974964142,-0.16759411990642548,11.492168426513672
1713722600360444055,-0.05965480953454971,-0.03515372797846794,0.037284255027770996,-1.4101847410202026,-1.2198457717895508,8.406042098999023
1713722600369444055,-0.03834952041506767,-0.09906959533691406,0.07243797928094864,-1.380257248878479,-0.9528922438621521,7.710526466369629
1713722600378444055,0.14700649678707123,-0.09374327212572098,0.049002163112163544,0.015562310814857483,0.2932896912097931,8.640673637390137
1713722600388444055,0.07030745595693588,0.0,0.05006742849946022,0.5027823448181152,0.6596025824546814,10.716446876525879
1713722600398444055,-0.006391586735844612,0.07563377171754837,0.03834952041506767,0.5327098965644836,0.29448679089546204,12.225991249084473
1713722600407444055,-0.1203748807311058,0.08628641813993454,0.04261057823896408,0.3196259140968323,-0.5482721924781799,11.474211692810059
1713722600417444055,-0.015978965908288956,-0.03302319720387459,0.04261057823896408,-1.1492167711257935,-1.4927847385406494,9.455899238586426
1713722600426444055,0.003195793367922306,-0.1022653877735138,0.09587380290031433,-1.2054805755615234,-1.0283095836639404,8.006210327148438
1713722600436444055,0.19707392156124115,-0.09800432622432709,0.058589544147253036,0.19273322820663452,0.3064578175544739,8.010998725891113
1713722600445444055,0.14061491191387177,0.008522115647792816,0.06285060197114944,0.3794809579849243,0.8619126081466675,9.199719429016113
1713722600455444055,0.04261057823896408,0.08202536404132843,0.05752427875995636,0.4225766062736511,0.9373299479484558,11.566388130187988
1713722600465444055,-0.11398329585790634,0.1065264418721199,0.06817692518234253,0.24420857429504395,0.23343466222286224,10.971428871154785
1713722600474444055,-0.185356006026268,0.05326322093605995,0.06817692518234253,-0.5602431893348694,-0.3794809579849243,11.202469825744629
1713722600484444055,-0.05965480953454971,-0.07776430249214172,0.07669904083013535,-1.5358803272247314,-1.237802267074585,8.544905662536621
1713722600494444055,-0.013848437927663326,-0.11398329585790634,0.11824434995651245,-0.7493851184844971,-0.9277531504631042,7.878120422363281
1713722600503444055,0.16405072808265686,-0.08948221057653427,0.07243797928094864,0.47165772318840027,-0.08140285313129425,9.606734275817871
1713722600513444055,0.07456851005554199,0.029827404767274857,0.08309062570333481,0.8559271097183228,0.005985504016280174,10.690110206604004
1713722600522444055,-0.008522115647792816,0.10333064943552017,0.06285060197114944,0.8667010068893433,0.07422025501728058,11.810596466064453
1713722600532444055,-0.07030745595693588,0.11078750342130661,0.05752427875995636,0.3363853394985199,-0.21667525172233582,10.398017883300781
1713722600541444055,0.002130528911948204,0.011717909015715122,0.06391586363315582,-1.1516109704971313,-0.751779317855835,8.564059257507324
1713722600551444055,0.012783173471689224,-0.05432848632335663,0.09587380290031433,-1.3192051649093628,-0.23942016065120697,8.299500465393066
1713722600560444055,0.12676647305488586,-0.07776430249214172,0.0788295716047287,-0.019153613597154617,0.6308721303939819,8.682572364807129
1713722600570444055,0.055393751710653305,-0.02876213937997818,0.08415588736534119,0.40701428055763245,0.7589619159698486,9.489418029785156
1713722600580444055,-0.03302319720387459,0.027696875855326653,0.08202536404132843,0.4800374209880829,0.6416460275650024,10.952275276184082
1713722600589444055,-0.13741911947727203,0.06817692518234253,0.07669904083013535,0.3579331338405609,0.1364694982767105,10.47822380065918
1713722600600444055,-0.10120011866092682,0.029827404767274857,0.07563377171754837,-0.456095427274704,-0.7410054206848145,10.111910820007324
1713722600608444055,-0.029827404767274857,-0.05326322093605995,0.09480853378772736,-1.194706678390503,-1.2461819648742676,9.078812599182129
1713722600618444055,0.05965480953454971,-0.07563377171754837,0.11185276508331299,-0.2908954918384552,-0.33997663855552673,9.63067626953125
1713722600628444055,0.12144014239311218,-0.03834952041506767,0.07989483326673508,0.6727706789970398,0.1388636976480484,10.781089782714844
1713722600637444055,0.055393751710653305,0.04048004746437073,0.0788295716047287,0.7565677165985107,-0.3519476354122162,10.323797225952148
1713722600647444055,-0.047936901450157166,0.09054747968912125,0.06711165606975555,0.5243301391601562,-0.2513911724090576,10.492588996887207
1713722600656444055,-0.024501081556081772,0.07030745595693588,0.05645901337265968,-0.4345476031303406,-0.264559268951416,9.734824180603027
1713722600666444055,0.015978965908288956,-0.00532632227987051,0.07776430249214172,-1.1264718770980835,-0.5159504413604736,8.368931770324707
1713722600675444055,0.06285060197114944,-0.06072007119655609,0.08309062570333481,-0.4141968786716461,0.07422025501728058,9.119514465332031
1713722600685444055,0.0884169489145279,-0.06711165606975555,0.07243797928094864,0.3902548849582672,0.5446808934211731,9.696516990661621
1713722600695444055,0.02130528911948204,-0.03834952041506767,0.0649811327457428,0.5171475410461426,0.25498247146606445,9.673771858215332
1713722600704444055,-0.0788295716047287,0.008522115647792816,0.05645901337265968,0.7074865698814392,0.05386953800916672,10.504559516906738
1713722600714444055,-0.12783172726631165,0.03941478580236435,0.04048004746437073,0.7912836670875549,-0.18914192914962769,10.74996566772461
1713722600723444055,-0.04261057823896408,0.007456851191818714,0.030892668291926384,0.05386953800916672,-1.0319008827209473,9.579200744628906
1713722600734444055,-0.013848437927663326,-0.03515372797846794,0.05432848632335663,-0.35913026332855225,-1.216254472732544,9.39245319366455
1713722600743444055,0.08628641813993454,-0.05645901337265968,0.04048004746437073,0.507570743560791,-0.33039984107017517,10.101137161254883
1713722600752444055,0.07989483326673508,-0.00532632227987051,0.027696875855326653,1.1312602758407593,0.17717091739177704,10.36569595336914
1713722600762444055,0.041545312851667404,0.06391586363315582,0.006391586735844612,0.8906430006027222,-0.002394201699644327,10.077195167541504
1713722600771444055,-0.019174760207533836,0.10546118021011353,0.002130528911948204,0.4752490222454071,-0.09816227108240128,9.429563522338867
1713722600781444055,0.003195793367922306,0.058589544147253036,-0.013848437927663326,-0.19632454216480255,-0.14365209639072418,9.406818389892578
1713722600791444055,0.003195793367922306,-0.007456851191818714,0.01065264455974102,-0.590170681476593,-0.1843535304069519,9.32661247253418
1713722600800444055,0.04048004746437073,-0.06072007119655609,0.009587380103766918,-0.31124621629714966,0.1496376097202301,9.437942504882812
1713722600810444055,0.019174760207533836,-0.05326322093605995,0.01065264455974102,0.06823474913835526,0.4129997789859772,9.853337287902832
1713722600819444055,-0.017044231295585632,-0.009587380103766918,0.001065264455974102,0.363918662071228,0.2777273952960968,9.807847023010254
1713722600829444055,-0.06391586363315582,0.04580637067556381,-0.001065264455974102,0.4692635238170624,0.07541735470294952,9.743204116821289
1713722600839444055,-0.06285060197114944,0.06817692518234253,-0.007456851191818714,0.0071826050989329815,-0.10654197633266449,10.481815338134766
1713722600849444055,0.00532632227987051,0.026631610468029976,-0.004261057823896408,-0.9397241473197937,-0.7948749661445618,10.004171371459961
1713722600858444055,0.011717909015715122,-0.013848437927663326,0.024501081556081772,-0.7062894701957703,-1.0067617893218994,10.200495719909668
1713722600867444055,0.06604639440774918,-0.041545312851667404,0.007456851191818714,0.1975216418504715,-0.5374982953071594,10.522516250610352
1713722600877444055,0.02130528911948204,-0.014913702383637428,0.00532632227987051,0.40222588181495667,-0.19393032789230347,10.147823333740234
1713722600886444055,0.009587380103766918,0.014913702383637428,-0.008522115647792816,0.38307225704193115,-0.0011971008498221636,9.892841339111328
1713722600896444055,0.008522115647792816,0.041545312851667404,-0.007456851191818714,0.28131869435310364,0.03950432687997818,8.761581420898438
1713722600906444055,0.017044231295585632,0.04687163606286049,-0.014913702383637428,-0.03232172131538391,0.23822306096553802,8.877699851989746
1713722600915444055,0.022370552644133568,0.03515372797846794,-0.009587380103766918,-0.30526071786880493,0.3411737382411957,9.569623947143555
1713722600925444055,0.0,-0.002130528911948204,-0.003195793367922306,-0.386663556098938,0.25977087020874023,9.815030097961426
1713722600934444055,-0.034088462591171265,-0.037284255027770996,0.002130528911948204,-0.31124621629714966,0.16160860657691956,9.791088104248047
1713722600944444055,-0.05965480953454971,-0.0511326938867569,0.001065264455974102,0.009576806798577309,0.008379706181585789,9.806650161743164
1713722600953444055,-0.05965480953454971,-0.03941478580236435,-0.001065264455974102,0.20231004059314728,-0.13287819921970367,10.004171371459961
1713722600963444055,-0.023435818031430244,-0.007456851191818714,-0.003195793367922306,0.06224924325942993,-0.2968810200691223,10.031704902648926
1713722600973444055,0.015978965908288956,0.027696875855326653,-0.004261057823896408,-0.02753331884741783,-0.47405192255973816,9.933542251586914
1713722600983444055,0.03621898964047432,0.047936901450157166,-0.004261057823896408,-0.06703764945268631,-0.4596867263317108,10.15141487121582
1713722600992444055,0.04261057823896408,0.03621898964047432,-0.01065264455974102,-0.304063618183136,-0.4345476031303406,10.589553833007812
1713722601002444055,0.023435818031430244,-0.009587380103766918,-0.003195793367922306,-0.35673603415489197,-0.4668693244457245,10.315418243408203
1713722601011444055,0.009587380103766918,-0.0511326938867569,0.008522115647792816,-0.016759412363171577,-0.1999158412218094,9.819818496704102
1713722601021444055,0.020240023732185364,-0.04687163606286049,0.002130528911948204,0.3100491166114807,0.15562310814857483,9.151835441589355
1713722601030444055,0.026631610468029976,0.001065264455974102,-0.001065264455974102,0.40222588181495667,0.27413609623908997,8.66102409362793
1713722601040444055,0.014913702383637428,0.05006742849946022,-0.009587380103766918,0.28730419278144836,0.3232172131538391,9.372102737426758
1713722601049444055,-0.01065264455974102,0.07030745595693588,-0.008522115647792816,-0.010773907415568829,0.3411737382411957,9.897629737854004
1713722601059444055,-0.034088462591171265,0.04687163606286049,-0.008522115647792816,-0.49320554733276367,0.22026655077934265,10.074800491333008
1713722601069444055,-0.03302319720387459,-0.017044231295585632,-0.002130528911948204,-0.8212111592292786,-0.17956513166427612,9.791088104248047
1713722601078444055,-0.047936901450157166,-0.06711165606975555,0.012783173471689224,-0.416591078042984,-0.27413609623908997,9.757569313049316
1713722601088444055,-0.020240023732185364,-0.07137271761894226,0.003195793367922306,0.21188685297966003,-0.06224924325942993,9.831789016723633
1713722601098444055,-0.022370552644133568,-0.017044231295585632,0.004261057823896408,0.43933600187301636,-0.1388636976480484,9.72165584564209
1713722601107444055,-0.029827404767274857,0.047936901450157166,-0.004261057823896408,0.37469255924224854,-0.32441431283950806,10.621875762939453
1713722601117444055,0.02556634694337845,0.055393751710653305,-0.01810949482023716,-0.07661445438861847,-0.8786720037460327,10.698490142822266
1713722601126444055,0.02876213937997818,0.003195793367922306,0.002130528911948204,-0.47884032130241394,-1.1647790670394897,10.1753568649292
1713722601136444055,0.05965480953454971,-0.04367584362626076,0.006391586735844612,-0.031124621629714966,-0.35913026332855225,10.113107681274414
1713722601145444055,0.08309062570333481,-0.03515372797846794,-0.01065264455974102,0.6141127347946167,0.40462008118629456,9.323020935058594
1713722601155444055,0.07243797928094864,0.01065264455974102,-0.020240023732185364,0.6033388376235962,0.4800374209880829,8.483853340148926
1713722601165444055,0.02130528911948204,0.05432848632335663,-0.029827404767274857,0.4297592043876648,0.5746083855628967,9.058462142944336
1713722601175444055,-0.03302319720387459,0.058589544147253036,-0.03941478580236435,0.208295539021492,0.6596025824546814,9.581595420837402
1713722601183444055,-0.08948221057653427,0.03302319720387459,-0.03941478580236435,-0.04668693244457245,0.49559974670410156,9.45111083984375
1713722601193444055,-0.11291802674531937,-0.017044231295585632,-0.04367584362626076,-0.17956513166427612,0.1173158809542656,9.81143856048584
1713722601203444055,-0.09480853378772736,-0.06924218684434891,-0.03515372797846794,-0.20111294090747833,-0.4213795065879822,9.953893661499023
1713722601212444055,-0.07563377171754837,-0.07030745595693588,-0.026631610468029976,0.2513911724090576,-0.569819986820221,10.33098030090332
1713722601222444055,-0.017044231295585632,-0.015978965908288956,-0.03621898964047432,0.6787561774253845,-0.5267243385314941,10.231620788574219
1713722601232444055,0.009587380103766918,0.05965480953454971,-0.049002163112163544,0.4381389021873474,-0.6596025824546814,10.251971244812012
1713722601241444055,0.06604639440774918,0.07350324839353561,-0.06072007119655609,-0.16759411990642548,-0.7960720658302307,10.69609546661377
1713722601251444055,0.0649811327457428,0.04367584362626076,-0.037284255027770996,-0.31364041566848755,-0.545877993106842,10.309432029724121
1713722601260444055,0.09054747968912125,-0.002130528911948204,-0.049002163112163544,-0.25258827209472656,0.016759412363171577,9.425971984863281
1713722601270444055,0.05006742849946022,-0.015978965908288956,-0.04687163606286049,-0.26815059781074524,0.5099649429321289,8.814253807067871
1713722601279444055,0.01065264455974102,-0.023435818031430244,-0.052197955548763275,-0.1149216815829277,0.7230489253997803,8.886079788208008
1713722601290444055,-0.049002163112163544,-0.011717909015715122,-0.05006742849946022,0.028730420395731926,0.5985504388809204,9.167398452758789
1713722601299444055,-0.10120011866092682,-0.001065264455974102,-0.05326322093605995,0.14006079733371735,0.4944026470184326,9.534908294677734
1713722601308444055,-0.12144014239311218,0.007456851191818714,-0.05006742849946022,0.09217676520347595,0.20111294090747833,9.45230770111084
1713722601318444055,-0.09054747968912125,-0.009587380103766918,-0.05326322093605995,-0.05386953800916672,-0.37828385829925537,9.68933391571045
1713722601327444055,-0.06924218684434891,-0.03302319720387459,-0.037284255027770996,-0.14724339544773102,-0.7493851184844971,10.516530990600586
1713722601337444055,-0.03195793181657791,-0.024501081556081772,-0.03302319720387459,0.040701426565647125,-0.568622887134552,11.152191162109375
1713722601347444055,0.007456851191818714,0.024501081556081772,-0.04580637067556381,0.2537853717803955,-0.42377370595932007,10.814608573913574
1713722601356444055,0.04261057823896408,0.05326322093605995,-0.058589544147253036,-0.02992752008140087,-0.5327098965644836,9.578003883361816
1713722601366444055,0.041545312851667404,0.04261057823896408,-0.0511326938867569,-0.16160860657691956,-0.355538934469223,9.198522567749023
1713722601375444055,0.0511326938867569,0.006391586735844612,-0.058589544147253036,-0.07541735470294952,-0.0694318488240242,9.536105155944824
1713722601385444055,0.0,-0.02130528911948204,-0.05645901337265968,-0.1388636976480484,0.19393032789230347,9.873687744140625
1713722601395444055,-0.03621898964047432,-0.03515372797846794,-0.05645901337265968,-0.11611878126859665,0.31364041566848755,9.697713851928711
1713722601404444055,-0.0649811327457428,-0.027696875855326653,-0.055393751710653305,0.033518824726343155,0.18555063009262085,9.10993766784668
1713722601414444055,-0.07030745595693588,-0.011717909015715122,-0.05752427875995636,0.21667525172233582,0.14604629576206207,9.172186851501465
1713722601423444055,-0.05752427875995636,0.01065264455974102,-0.05965480953454971,0.2561795711517334,0.14245499670505524,9.351751327514648
1713722601433444055,-0.04367584362626076,0.017044231295585632,-0.0649811327457428,0.14245499670505524,-0.061052143573760986,9.800664901733398
1713722601443444055,-0.041545312851667404,0.001065264455974102,-0.06391586363315582,-0.07422025501728058,-0.395043283700943,10.5344877243042
1713722601452444055,-0.041545312851667404,-0.023435818031430244,-0.055393751710653305,-0.16519992053508759,-0.6368576288223267,10.880449295043945
1713722601462444055,-0.030892668291926384,-0.027696875855326653,-0.047936901450157166,-0.15801730751991272,-0.667982280254364,10.487800598144531
1713722601472444055,-0.001065264455974102,-0.004261057823896408,-0.05432848632335663,-0.07661445438861847,-0.46806642413139343,9.736021041870117
1713722601481444055,0.024501081556081772,0.022370552644133568,-0.05965480953454971,0.15562310814857483,-0.1388636976480484,9.285911560058594
1713722601490444055,0.03195793181657791,0.029827404767274857,-0.0649811327457428,0.10654197633266449,-0.0071826050989329815,9.514557838439941
1713722601500444055,-0.002130528911948204,0.026631610468029976,-0.06711165606975555,-0.10175357013940811,-0.10534487664699554,10.086771965026855
1713722601509444055,-0.04048004746437073,-0.003195793367922306,-0.0649811327457428,-0.19273322820663452,-0.10893617570400238,10.381258010864258
1713722601519444055,-0.04580637067556381,-0.041545312851667404,-0.05432848632335663,-0.2753331959247589,-0.2059013396501541,9.667786598205566
1713722601529444055,-0.03834952041506767,-0.04367584362626076,-0.047936901450157166,-0.014365210197865963,-0.1759738177061081,9.090784072875977
1713722601539444055,0.004261057823896408,-0.019174760207533836,-0.05752427875995636,0.3818751573562622,0.09457096457481384,8.87171459197998
1713722601548444055,0.004261057823896408,0.01065264455974102,-0.06391586363315582,0.41539397835731506,0.25977087020874023,9.175777435302734
1713722601557444055,-0.02130528911948204,0.03195793181657791,-0.06817692518234253,0.20470423996448517,0.22625206410884857,10.17296314239502
1713722601567444055,-0.0788295716047287,0.034088462591171265,-0.07243797928094864,0.0454898327589035,-0.20470423996448517,10.772710800170898
1713722601576444055,-0.07669904083013535,-0.013848437927663326,-0.07243797928094864,-0.3926490843296051,-0.8583213090896606,10.951078414916992
1713722601586444055,-0.055393751710653305,-0.06924218684434891,-0.052197955548763275,-0.7697358131408691,-1.0618284940719604,9.84376049041748
1713722601596444055,0.002130528911948204,-0.07137271761894226,-0.04580637067556381,-0.06464344263076782,-0.355538934469223,9.429563522338867
1713722601605444055,0.07456851005554199,-0.029827404767274857,-0.06817692518234253,0.7745242118835449,0.17956513166427612,9.244012832641602
1713722601615444055,0.047936901450157166,0.04687163606286049,-0.07030745595693588,0.6715735793113708,0.031124621629714966,9.261969566345215
1713722601624444055,-0.026631610468029976,0.1022653877735138,-0.08309062570333481,0.29209259152412415,-0.10893617570400238,10.615890502929688
1713722601634444055,-0.06817692518234253,0.07456851005554199,-0.08202536404132843,-0.38067805767059326,-0.20231004059314728,11.388020515441895
1713722601644444055,-0.030892668291926384,-0.029827404767274857,-0.06178533658385277,-1.181538462638855,-0.6536170244216919,9.454702377319336
1713722601653444055,-0.020240023732185364,-0.09161274135112762,-0.041545312851667404,-0.5770025849342346,-0.42018237709999084,8.481459617614746
1713722601663444055,0.06817692518234253,-0.1022653877735138,-0.06285060197114944,0.6607996821403503,0.22625206410884857,8.622716903686523
1713722601672444055,0.01810949482023716,-0.03941478580236435,-0.06924218684434891,0.9409212470054626,0.2932896912097931,9.062053680419922
1713722601682444055,-0.06391586363315582,0.044741105288267136,-0.08202536404132843,0.7206547260284424,0.15562310814857483,11.164162635803223
1713722601692444055,-0.14700649678707123,0.10120011866092682,-0.08415588736534119,0.44651859998703003,-0.4752490222454071,12.175712585449219
1713722601701444055,-0.0511326938867569,0.03195793181657791,-0.08628641813993454,-0.8056488633155823,-1.546654224395752,10.295066833496094
1713722601711444055,-0.022370552644133568,-0.047936901450157166,-0.04048004746437073,-1.2832920551300049,-1.4209586381912231,8.395268440246582
1713722601721444055,0.14274543523788452,-0.092678003013134,-0.055393751710653305,0.17717091739177704,0.05626373738050461,8.483853340148926
1713722601730444055,0.11398329585790634,-0.041545312851667404,-0.07137271761894226,0.9792284965515137,1.036689281463623,9.586383819580078
1713722601740444055,0.0511326938867569,0.034088462591171265,-0.09800432622432709,0.7206547260284424,0.8571242094039917,10.223240852355957
1713722601749444055,-0.10546118021011353,0.08948221057653427,-0.08202536404132843,0.46567222476005554,0.28131869435310364,10.341753959655762
1713722601759444055,-0.19174760580062866,0.08628641813993454,-0.092678003013134,0.15801730751991272,-0.10295066982507706,10.481815338134766
1713722601768444055,-0.1022653877735138,0.008522115647792816,-0.08735168725252151,-0.790086567401886,-0.8212111592292786,8.47786808013916
1713722601778444055,-0.07456851005554199,-0.06072007119655609,-0.05965480953454971,-0.9217676520347595,-0.7445967197418213,8.100781440734863
1713722601787444055,0.06178533658385277,-0.09161274135112762,-0.07030745595693588,-0.02753331884741783,0.13766659796237946,9.14345645904541
1713722601797444055,0.007456851191818714,-0.034088462591171265,-0.07669904083013535,0.5781996846199036,0.45848962664604187,11.190498352050781
1713722601807444055,-0.06711165606975555,0.04048004746437073,-0.092678003013134,0.7589619159698486,-0.15442600846290588,12.157755851745605
1713722601816444055,-0.15872439742088318,0.09161274135112762,-0.08309062570333481,0.48961424827575684,-1.0558428764343262,12.15416431427002
1713722601826444055,-0.008522115647792816,0.007456851191818714,-0.09693906456232071,-1.4113818407058716,-2.029085874557495,9.973047256469727
1713722601835444055,0.01810949482023716,-0.05006742849946022,-0.026631610468029976,-1.4137760400772095,-1.48081374168396,8.04691219329834
1713722601846444055,0.23116238415241241,-0.08948221057653427,-0.07350324839353561,0.4692635238170624,-0.015562310814857483,7.872135162353516
1713722601854444055,0.14594122767448425,-0.026631610468029976,-0.06604639440774918,0.6320692300796509,0.7386112213134766,9.133879661560059
1713722601864444055,0.03941478580236435,0.024501081556081772,-0.08415588736534119,0.48722004890441895,1.0510544776916504,11.12346076965332
1713722601874444055,-0.1299622654914856,0.06604639440774918,-0.06711165606975555,0.45848962664604187,0.6033388376235962,10.226832389831543
1713722601883444055,-0.24927188456058502,0.0788295716047287,-0.06391586363315582,0.23582886159420013,0.3926490843296051,9.526528358459473
1713722601893444055,-0.1757686287164688,0.049002163112163544,-0.08309062570333481,-0.9026139974594116,-0.06344634294509888,8.3306245803833
1713722601903444055,-0.08096009492874146,-0.034088462591171265,-0.06072007119655609,-1.437718152999878,-0.6775590777397156,7.839813232421875
1713722601912444055,0.008522115647792816,-0.08096009492874146,-0.04580637067556381,-0.24899697303771973,-0.26575639843940735,9.914388656616211
1713722601922444055,0.011717909015715122,-0.055393751710653305,-0.06178533658385277,0.6428431272506714,-0.16160860657691956,12.42231559753418
1713722601931444055,-0.07030745595693588,0.022370552644133568,-0.058589544147253036,0.5099649429321289,-1.1216834783554077,12.11705493927002
1713722601941444055,-0.09800432622432709,0.06072007119655609,-0.06285060197114944,-0.42616790533065796,-1.6184803247451782,11.113883972167969
1713722601950444055,0.034088462591171265,-0.01065264455974102,-0.06072007119655609,-1.236605167388916,-1.577778935432434,8.508993148803711
1713722601960444055,0.10439591109752655,-0.044741105288267136,-0.007456851191818714,0.0071826050989329815,-0.1735796183347702,8.676587104797363
1713722601970444055,0.26205503940582275,-0.05965480953454971,-0.06711165606975555,0.9876081943511963,0.9349357485771179,8.665812492370605
1713722601979444055,0.1395496428012848,0.0,-0.04367584362626076,0.5099649429321289,0.6619967818260193,8.646658897399902
1713722601989444055,-0.02876213937997818,0.034088462591171265,-0.0649811327457428,0.12928688526153564,0.4058171808719635,11.581950187683105
1713722601998444055,-0.20026971399784088,0.05965480953454971,-0.04580637067556381,0.1843535304069519,0.08619125932455063,10.38963794708252
1713722602008444055,-0.3110572099685669,0.06391586363315582,-0.047936901450157166,0.304063618183136,-0.07900865375995636,9.684545516967773
1713722602018444055,-0.148071750998497,-0.003195793367922306,-0.07350324839353561,-0.4058171808719635,-0.6919242739677429,7.824251174926758
1713722602027444055,-0.10865697264671326,-0.04261057823896408,-0.020240023732185364,-0.6847416758537292,-0.788889467716217,7.8745293617248535
1713722602037444055,0.052197955548763275,-0.04580637067556381,-0.052197955548763275,-0.14604629576206207,-0.2968810200691223,10.747570991516113
1713722602046444055,-0.01065264455974102,0.041545312851667404,-0.03621898964047432,0.29807811975479126,-0.1280897855758667,12.45822811126709
1713722602056444055,-0.058589544147253036,0.09693906456232071,-0.05432848632335663,0.25019407272338867,-0.5494692921638489,12.853271484375
1713722602065444055,0.013848437927663326,0.0649811327457428,-0.04048004746437073,-0.970848798751831,-1.601720929145813,9.385270118713379
1713722602075444055,0.029827404767274857,-0.01065264455974102,-0.006391586735844612,-1.2904746532440186,-1.2904746532440186,7.480682849884033
1713722602085444055,0.16937704384326935,-0.06604639440774918,-0.006391586735844612,-0.33997663855552673,0.3387795388698578,7.971494197845459
1713722602094444055,0.10972223430871964,-0.03621898964047432,-0.013848437927663326,0.1364694982767105,1.2916717529296875,9.44871711730957
1713722602104444055,0.008522115647792816,0.023435818031430244,-0.023435818031430244,0.14484919607639313,0.9828197956085205,10.485405921936035
1713722602113444055,-0.1768338978290558,0.07456851005554199,0.001065264455974102,0.03232172131538391,0.2298433631658554,10.959458351135254
1713722602123444055,-0.2407497614622116,0.05752427875995636,-0.01065264455974102,-0.2609679698944092,-0.5506663918495178,12.211625099182129
1713722602132444055,-0.08096009492874146,-0.05432848632335663,0.006391586735844612,-1.6065093278884888,-1.9165583848953247,8.65863037109375
1713722602142444055,-0.04367584362626076,-0.09906959533691406,0.05752427875995636,-1.2042834758758545,-1.3682862520217896,7.587224960327148
1713722602152444055,0.18002969026565552,-0.08415588736534119,0.014913702383637428,0.32680851221084595,-0.05626373738050461,8.887276649475098
1713722602161444055,0.07989483326673508,0.026631610468029976,0.020240023732185364,0.5829880833625793,0.16879121959209442,10.362104415893555
1713722602171444055,-0.019174760207533836,0.09800432622432709,0.012783173471689224,0.6416460275650024,0.21428105235099792,12.053607940673828
1713722602180444055,-0.1619201898574829,0.1257012039422989,0.02130528911948204,0.1388636976480484,-0.27054479718208313,10.234015464782715
1713722602190444055,-0.10333064943552017,0.03941478580236435,0.00532632227987051,-1.0342950820922852,-0.7697358131408691,9.29069995880127
1713722602199444055,-0.0511326938867569,-0.055393751710653305,0.049002163112163544,-1.381454348564148,-0.7398083209991455,7.7847466468811035
1713722602210637029,0.08096009492874146,-0.09693906456232071,0.04367584362626076,-0.11971008032560349,0.14604629576206207,8.275558471679688
1713722602220637029,0.0788295716047287,-0.049002163112163544,0.030892668291926384,0.7182605266571045,0.5985504388809204,10.63863468170166
1713722602229637029,-0.012783173471689224,0.029827404767274857,0.01810949482023716,0.6536170244216919,-0.013168109580874443,11.27190113067627
1713722602239637029,-0.16511598229408264,0.08628641813993454,0.026631610468029976,0.6033388376235962,-0.6584054827690125,11.4263277053833
1713722602248637029,-0.11078750342130661,0.029827404767274857,-0.00532632227987051,-0.3711012601852417,-1.4664485454559326,10.676941871643066
1713722602258637029,-0.026631610468029976,-0.06072007119655609,0.041545312851667404,-1.3539210557937622,-1.8315643072128296,8.052897453308105
1713722602268637029,0.10546118021011353,-0.08628641813993454,0.04580637067556381,-0.13407529890537262,-0.34596213698387146,8.426392555236816
1713722602278637029,0.17470337450504303,-0.02556634694337845,0.017044231295585632,0.8475474119186401,0.6835445761680603,10.135852813720703
1713722602287637029,0.08628641813993454,0.06391586363315582,0.015978965908288956,0.568622887134552,0.16998831927776337,10.384849548339844
1713722602297637029,-0.07456851005554199,0.11291802674531937,0.02130528911948204,0.386663556098938,-0.28730419278144836,10.969035148620605
1713722602306637029,-0.17044231295585632,0.10013485699892044,0.017044231295585632,0.05626373738050461,-0.4644751250743866,11.105504035949707
1713722602316637029,-0.04687163606286049,-0.004261057823896408,0.026631610468029976,-1.238999366760254,-1.260547161102295,8.80467700958252
1713722602325637029,-0.030892668291926384,-0.05965480953454971,0.06924218684434891,-1.2270283699035645,-0.9181763529777527,8.124723434448242
1713722602335637029,0.14700649678707123,-0.058589544147253036,0.04261057823896408,0.05386953800916672,0.090979665517807,8.447940826416016
1713722602344637029,0.04687163606286049,0.029827404767274857,0.04687163606286049,0.5147533416748047,0.26815059781074524,10.352527618408203
1713722602354637029,-0.04687163606286049,0.08096009492874146,0.02130528911948204,0.8667010068893433,-0.09576806426048279,12.391190528869629
1713722602364637029,-0.1438107043504715,0.06817692518234253,0.014913702383637428,0.3280056416988373,-0.9469067454338074,12.302605628967285
1713722602373637029,-0.023435818031430244,-0.05432848632335663,0.004261057823896408,-0.9971849918365479,-1.8495208024978638,9.736021041870117
1713722602383637029,0.017044231295585632,-0.10439591109752655,0.05326322093605995,-0.5506663918495178,-1.1444283723831177,7.739256858825684
1713722602392637029,0.23329290747642517,-0.08522115647792816,-0.01065264455974102,0.750582218170166,0.20949263870716095,8.124723434448242
1713722602402637029,0.17470337450504303,0.015978965908288956,-0.01065264455974102,0.8978255987167358,0.4118026793003082,8.710105895996094
1713722602411637029,0.06817692518234253,0.07563377171754837,-0.022370552644133568,0.7206547260284424,0.5650315880775452,10.740388870239258
1713722602421637029,-0.1022653877735138,0.09693906456232071,-0.013848437927663326,0.4381389021873474,0.19033902883529663,10.894814491271973
1713722602431637029,-0.22796659171581268,0.08522115647792816,-0.01065264455974102,0.07302314788103104,-0.22744916379451752,10.975020408630371
1713722602440637029,-0.09800432622432709,-0.014913702383637428,-0.027696875855326653,-0.9445125460624695,-0.9062053561210632,8.303091049194336
1713722602450637029,-0.05752427875995636,-0.07669904083013535,0.019174760207533836,-0.9516951441764832,-0.8870517015457153,7.432798862457275
1713722602459637029,0.13102751970291138,-0.08948221057653427,-0.017044231295585632,0.23942016065120697,-0.06224924325942993,9.320627212524414
1713722602470637029,0.06604639440774918,-0.008522115647792816,-0.023435818031430244,0.9014168977737427,0.21547815203666687,11.535264015197754
1713722602478637029,-0.015978965908288956,0.05006742849946022,-0.05326322093605995,0.993593692779541,-0.3411737382411957,12.221202850341797
1713722602488637029,-0.11824434995651245,0.07669904083013535,-0.049002163112163544,0.5889735817909241,-1.0618284940719604,11.88242244720459
1713722602498637029,0.01810949482023716,-0.02130528911948204,-0.06817692518234253,-0.8200140595436096,-1.7262194156646729,9.386467933654785
1713722602507637029,0.04367584362626076,-0.06604639440774918,-0.004261057823896408,-0.8259995579719543,-1.0283095836639404,7.793126583099365
1713722602517637029,0.24181503057479858,-0.06817692518234253,-0.05645901337265968,0.3734954595565796,0.21188685297966003,8.058882713317871
1713722602526637029,0.15233281254768372,0.022370552644133568,-0.044741105288267136,0.712274968624115,0.5770025849342346,8.869319915771484
1713722602536637029,0.027696875855326653,0.058589544147253036,-0.07137271761894226,0.7003039717674255,0.8092401623725891,11.32577133178711
1713722602546637029,-0.12889699637889862,0.07030745595693588,-0.05645901337265968,0.27054479718208313,0.4429273009300232,10.413579940795898
1713722602555637029,-0.22370553016662598,0.04367584362626076,-0.06072007119655609,0.05267243832349777,0.0694318488240242,10.122684478759766
1713722602565637029,-0.09161274135112762,-0.055393751710653305,-0.06391586363315582,-1.1863269805908203,-0.8834604024887085,8.540117263793945
1713722602574637029,-0.06072007119655609,-0.09587380290031433,-0.01810949482023716,-0.9612719416618347,-1.0247182846069336,8.544905662536621
1713722602584637029,0.09693906456232071,-0.08415588736534119,-0.06391586363315582,0.6452373266220093,-0.39863458275794983,9.566032409667969
1713722602594637029,0.013848437927663326,0.01810949482023716,-0.05645901337265968,1.1312602758407593,-0.39624038338661194,11.314996719360352
1713722602603637029,-0.0511326938867569,0.07776430249214172,-0.08735168725252151,1.071405291557312,-0.7637503147125244,12.9741792678833
1713722602613637029,0.00532632227987051,0.04580637067556381,-0.09374327212572098,-0.2106897532939911,-1.7142484188079834,10.432733535766602
1713722602622637029,0.044741105288267136,-0.03515372797846794,-0.06391586363315582,-0.9876081943511963,-1.5885528326034546,8.246828079223633
1713722602632637029,0.18642127513885498,-0.07030745595693588,-0.0649811327457428,-0.031124621629714966,0.15682020783424377,8.248024940490723
1713722602642637029,0.21411815285682678,-0.03302319720387459,-0.09161274135112762,0.8882488012313843,1.314416766166687,9.263166427612305
1713722602651637029,0.13635385036468506,0.019174760207533836,-0.11504855751991272,0.9277531504631042,0.9959878921508789,9.333795547485352
1713722602661637029,-0.0511326938867569,0.041545312851667404,-0.10333064943552017,0.6596025824546814,0.38546645641326904,10.562020301818848
1713722602670637029,-0.17789916694164276,0.03834952041506767,-0.11717908829450607,0.20111294090747833,-0.02513911761343479,10.553641319274902
1713722602680637029,-0.21944446861743927,0.037284255027770996,-0.09587380290031433,-0.20709843933582306,-0.5111620426177979,10.314220428466797
1713722602689637029,-0.06817692518234253,-0.052197955548763275,-0.11824434995651245,-0.7936778664588928,-1.4449007511138916,8.720879554748535
