t,gx,gy,gz,ax,ay,az
1713722594469036102,-0.004261057823896408,-0.002130528911948204,-0.00532632227987051,0.05027823522686958,-0.4010287821292877,9.852139472961426
1713722594478036102,-0.004261057823896408,-0.003195793367922306,-0.00532632227987051,0.08379705995321274,-0.37469255924224854,9.860519409179688
1713722594487036102,-0.004261057823896408,-0.002130528911948204,-0.006391586735844612,0.10175357013940811,-0.3411737382411957,9.865307807922363
1713722594497036102,-0.004261057823896408,-0.002130528911948204,-0.006391586735844612,0.07422025501728058,-0.3663128614425659,9.856927871704102
1713722594506036102,-0.004261057823896408,-0.002130528911948204,-0.006391586735844612,0.05267243832349777,-0.386663556098938,9.849745750427246
1713722594516036102,-0.00532632227987051,-0.003195793367922306,-0.00532632227987051,0.07661445438861847,-0.3543418347835541,9.853337287902832
1713722594525036102,-0.004261057823896408,-0.002130528911948204,-0.006391586735844612,0.09696516394615173,-0.32680851221084595,9.858125686645508
1713722594535036102,-0.004261057823896408,-0.002130528911948204,-0.006391586735844612,0.0694318488240242,-0.355538934469223,9.858125686645508
1713722594545036102,-0.004261057823896408,-0.002130528911948204,-0.00532632227987051,0.05506663769483566,-0.37828385829925537,9.860519409179688
1713722594554036102,-0.004261057823896408,-0.002130528911948204,-0.00532632227987051,0.08140285313129425,-0.3519476354122162,9.864110946655273
1713722594563036102,-0.004261057823896408,-0.002130528911948204,-0.00532632227987051,0.090979665517807,-0.34356793761253357,9.864110946655273
1713722594573036102,-0.004261057823896408,-0.002130528911948204,-0.006391586735844612,0.0694318488240242,-0.37229835987091064,9.856927871704102
1713722594582036102,-0.00532632227987051,-0.002130528911948204,-0.006391586735844612,0.05626373738050461,-0.3770867586135864,9.856927871704102
1713722594591036102,-0.004261057823896408,-0.003195793367922306,-0.006391586735844612,0.07900865375995636,-0.34596213698387146,9.861716270446777
1713722594602036102,-0.004261057823896408,-0.002130528911948204,-0.006391586735844612,0.08499415963888168,-0.34835633635520935,9.870096206665039
1713722594611036102,-0.00532632227987051,-0.001065264455974102,-0.006391586735844612,0.05506663769483566,-0.37828385829925537,9.858125686645508
1713722594620036102,-0.004261057823896408,-0.001065264455974102,-0.00532632227987051,0.0586579404771328,-0.38307225704193115,9.849745750427246
1713722594630036102,-0.004261057823896408,-0.002130528911948204,-0.00532632227987051,0.08738835901021957,-0.35673603415489197,9.866504669189453
1713722594639036102,-0.004261057823896408,-0.002130528911948204,-0.006391586735844612,0.08619125932455063,-0.355538934469223,9.86770248413086
1713722594648036102,-0.004261057823896408,-0.002130528911948204,-0.006391586735844612,0.0586579404771328,-0.37828385829925537,9.860519409179688
1713722594659036102,-0.00532632227987051,-0.002130528911948204,-0.00532632227987051,0.06464344263076782,-0.3627215623855591,9.859322547912598
1713722594667036102,-0.004261057823896408,-0.002130528911948204,-0.006391586735844612,0.09217676520347595,-0.3315969407558441,9.860519409179688
1713722594677036102,-0.004261057823896408,-0.002130528911948204,-0.006391586735844612,0.07661445438861847,-0.3447650372982025,9.860519409179688
1713722594686036102,-0.004261057823896408,-0.003195793367922306,-0.006391586735844612,0.05027823522686958,-0.386663556098938,9.860519409179688
1713722594696036102,-0.00532632227987051,-0.002130528911948204,-0.006391586735844612,0.06464344263076782,-0.3794809579849243,9.862914085388184
1713722594705036102,-0.00532632227987051,-0.002130528911948204,-0.00532632227987051,0.08858545869588852,-0.3495534360408783,9.865307807922363
1713722594715036102,-0.004261057823896408,-0.002130528911948204,-0.006391586735844612,0.07422025501728058,-0.35673603415489197,9.862914085388184
1713722594724036102,-0.004261057823896408,-0.002130528911948204,-0.00532632227987051,0.05506663769483566,-0.3758896589279175,9.862914085388184
1713722594734036102,-0.004261057823896408,-0.002130528911948204,-0.00532632227987051,0.06584054231643677,-0.3711012601852417,9.86770248413086
1713722594744036102,-0.004261057823896408,-0.002130528911948204,-0.00532632227987051,0.08140285313129425,-0.34356793761253357,9.86889934539795
1713722594753036102,-0.004261057823896408,-0.002130528911948204,-0.006391586735844612,0.07182604819536209,-0.355538934469223,9.855731010437012
1713722594762036102,-0.00532632227987051,-0.002130528911948204,-0.006391586735844612,0.0586579404771328,-0.37828385829925537,9.84615421295166
1713722594772036102,-0.00532632227987051,-0.002130528911948204,-0.006391586735844612,0.07541735470294952,-0.3603273630142212,9.861716270446777
1713722594781036102,-0.004261057823896408,-0.002130528911948204,-0.006391586735844612,0.08619125932455063,-0.34835633635520935,9.86770248413086
1713722594790036102,-0.004261057823896408,-0.002130528911948204,-0.006391586735844612,0.06823474913835526,-0.3663128614425659,9.854534149169922
1713722594800036102,-0.004261057823896408,-0.002130528911948204,-0.00532632227987051,0.05506663769483566,-0.38067805767059326,9.84735107421875
1713722594810036102,-0.004261057823896408,-0.003195793367922306,-0.00532632227987051,0.07541735470294952,-0.3627215623855591,9.856927871704102
1713722594819036102,-0.004261057823896408,-0.002130528911948204,-0.006391586735844612,0.08499415963888168,-0.34835633635520935,9.874884605407715
1713722594828036102,-0.004261057823896408,-0.002130528911948204,-0.006391586735844612,0.06224924325942993,-0.3579331338405609,9.8784761428833
1713722594838036102,-0.004261057823896408,-0.002130528911948204,-0.00532632227987051,0.05985504016280174,-0.3758896589279175,9.861716270446777
1713722594847036102,-0.004261057823896408,-0.002130528911948204,-0.006391586735844612,0.08499415963888168,-0.3579331338405609,9.854534149169922
1713722594857036102,-0.004261057823896408,-0.002130528911948204,-0.00532632227987051,0.08978256583213806,-0.33997663855552673,9.86770248413086
1713722594866036102,-0.004261057823896408,-0.002130528911948204,-0.006391586735844612,0.0694318488240242,-0.3758896589279175,9.86889934539795
1713722594876036102,-0.004261057823896408,-0.003195793367922306,-0.00532632227987051,0.06464344263076782,-0.38307225704193115,9.859322547912598
1713722594886036102,-0.004261057823896408,-0.002130528911948204,-0.00532632227987051,0.0933738648891449,-0.3495534360408783,9.862914085388184
1713722594895036102,-0.004261057823896408,-0.002130528911948204,-0.006391586735844612,0.09217676520347595,-0.3447650372982025,9.865307807922363
1713722594904036102,-0.004261057823896408,-0.002130528911948204,-0.006391586735844612,0.05626373738050461,-0.37469255924224854,9.864110946655273
1713722594914036102,-0.004261057823896408,-0.002130528911948204,-0.006391586735844612,0.05626373738050461,-0.3758896589279175,9.858125686645508
1713722594923036102,-0.00532632227987051,-0.002130528911948204,-0.00532632227987051,0.08259996026754379,-0.3411737382411957,9.866504669189453
1713722594933036102,-0.004261057823896408,-0.002130528911948204,-0.006391586735844612,0.07900865375995636,-0.34356793761253357,9.874884605407715
1713722594942036102,-0.004261057823896408,-0.002130528911948204,-0.00532632227987051,0.061052143573760986,-0.37828385829925537,9.858125686645508
1713722594952036102,-0.00532632227987051,-0.002130528911948204,-0.00532632227987051,0.0694318488240242,-0.3794809579849243,9.842562675476074
1713722594961036102,-0.004261057823896408,-0.002130528911948204,-0.006391586735844612,0.09457096457481384,-0.3447650372982025,9.848548889160156
1713722594971036102,-0.004261057823896408,-0.002130528911948204,-0.006391586735844612,0.08379705995321274,-0.34596213698387146,9.864110946655273
1713722594981036102,-0.003195793367922306,-0.002130528911948204,-0.006391586735844612,0.05506663769483566,-0.3770867586135864,9.862914085388184
1713722594989036102,-0.004261057823896408,-0.002130528911948204,-0.00532632227987051,0.06703764945268631,-0.36990416049957275,9.856927871704102
1713722594999036102,-0.004261057823896408,-0.002130528911948204,-0.00532632227987051,0.090979665517807,-0.33518823981285095,9.861716270446777
1713722595009036102,-0.00532632227987051,-0.002130528911948204,-0.006391586735844612,0.07302314788103104,-0.34356793761253357,9.858125686645508
1713722595018036102,-0.004261057823896408,-0.002130528911948204,-0.006391586735844612,0.04429272934794426,-0.3818751573562622,9.849745750427246
1713722595027036102,-0.004261057823896408,-0.002130528911948204,-0.00532632227987051,0.06823474913835526,-0.36750996112823486,9.854534149169922
1713722595037036102,-0.004261057823896408,-0.003195793367922306,-0.006391586735844612,0.10055647045373917,-0.3363853394985199,9.866504669189453
1713722595046036102,-0.004261057823896408,-0.002130528911948204,-0.006391586735844612,0.07781155407428741,-0.35673603415489197,9.865307807922363
1713722595056036102,-0.004261057823896408,-0.001065264455974102,-0.006391586735844612,0.04668693244457245,-0.38786065578460693,9.856927871704102
1713722595065036102,-0.004261057823896408,-0.002130528911948204,-0.00532632227987051,0.06703764945268631,-0.363918662071228,9.853337287902832
1713722595075036102,-0.004261057823896408,-0.002130528911948204,-0.00532632227987051,0.0933738648891449,-0.3292027413845062,9.860519409179688
1713722595084036102,-0.004261057823896408,-0.002130528911948204,-0.006391586735844612,0.06823474913835526,-0.35913026332855225,9.864110946655273
1713722595094036102,-0.004261057823896408,-0.002130528911948204,-0.00532632227987051,0.04429272934794426,-0.38786065578460693,9.860519409179688
1713722595103036102,-0.004261057823896408,-0.002130528911948204,-0.00532632227987051,0.06823474913835526,-0.36152446269989014,9.861716270446777
1713722595113036102,-0.004261057823896408,-0.002130528911948204,-0.00532632227987051,0.09816227108240128,-0.3363853394985199,9.861716270446777
1713722595122036102,-0.004261057823896408,-0.001065264455974102,-0.007456851191818714,0.07302314788103104,-0.363918662071228,9.861716270446777
1713722595132036102,-0.004261057823896408,-0.002130528911948204,-0.006391586735844612,0.04908113554120064,-0.38546645641326904,9.861716270446777
1713722595141036102,-0.00532632227987051,-0.003195793367922306,-0.00532632227987051,0.07781155407428741,-0.3495534360408783,9.865307807922363
1713722595150036102,-0.00532632227987051,-0.002130528911948204,-0.006391586735844612,0.09935937076807022,-0.33279404044151306,9.866504669189453
1713722595161036102,-0.003195793367922306,-0.002130528911948204,-0.007456851191818714,0.07541735470294952,-0.3663128614425659,9.853337287902832
1713722595170036102,-0.004261057823896408,-0.002130528911948204,-0.006391586735844612,0.05267243832349777,-0.3794809579849243,9.84495735168457
1713722595179036102,-0.004261057823896408,-0.002130528911948204,-0.006391586735844612,0.07422025501728058,-0.33997663855552673,9.848548889160156
1713722595188036102,-0.004261057823896408,-0.001065264455974102,-0.006391586735844612,0.08619125932455063,-0.32680851221084595,9.855731010437012
1713722595198036102,-0.004261057823896408,-0.002130528911948204,-0.006391586735844612,0.061052143573760986,-0.3603273630142212,9.853337287902832
1713722595207036102,-0.004261057823896408,-0.003195793367922306,-0.00532632227987051,0.05267243832349777,-0.36990416049957275,9.856927871704102
1713722595218036102,-0.004261057823896408,-0.003195793367922306,-0.00532632227987051,0.08140285313129425,-0.33758243918418884,9.866504669189453
1713722595226036102,-0.004261057823896408,-0.002130528911948204,-0.006391586735844612,0.08738835901021957,-0.333991140127182,9.86889934539795
1713722595236036102,-0.004261057823896408,-0.002130528911948204,-0.00532632227987051,0.05746084079146385,-0.3734954595565796,9.862914085388184
1713722595246036102,-0.004261057823896408,-0.002130528911948204,-0.00532632227987051,0.05506663769483566,-0.38307225704193115,9.849745750427246
1713722595255036102,-0.004261057823896408,-0.002130528911948204,-0.006391586735844612,0.08379705995321274,-0.355538934469223,9.856927871704102
1713722595264036102,-0.004261057823896408,-0.002130528911948204,-0.006391586735844612,0.0802057534456253,-0.33758243918418884,9.859322547912598
1713722595274036102,-0.004261057823896408,-0.002130528911948204,-0.00532632227987051,0.05147533491253853,-0.365115761756897,9.849745750427246
1713722595283036102,-0.004261057823896408,-0.002130528911948204,-0.00532632227987051,0.05147533491253853,-0.38307225704193115,9.856927871704102
1713722595293036102,-0.004261057823896408,-0.002130528911948204,-0.00532632227987051,0.07900865375995636,-0.3495534360408783,9.86889934539795
1713722595302036102,-0.004261057823896408,-0.002130528911948204,-0.006391586735844612,0.08140285313129425,-0.3423708379268646,9.862914085388184
1713722595312036102,-0.004261057823896408,-0.002130528911948204,-0.006391586735844612,0.0586579404771328,-0.3734954595565796,9.84735107421875
1713722595321036102,-0.004261057823896408,-0.002130528911948204,-0.00532632227987051,0.07062894850969315,-0.3687070608139038,9.849745750427246
1713722595331036102,-0.004261057823896408,-0.002130528911948204,-0.006391586735844612,0.09217676520347595,-0.3447650372982025,9.861716270446777
1713722595340036102,-0.004261057823896408,-0.002130528911948204,-0.006391586735844612,0.07900865375995636,-0.36152446269989014,9.864110946655273
1713722595349036102,-0.004261057823896408,-0.002130528911948204,-0.00532632227987051,0.05506663769483566,-0.3794809579849243,9.855731010437012
1713722595360036102,-0.004261057823896408,-0.003195793367922306,-0.00532632227987051,0.06464344263076782,-0.3543418347835541,9.856927871704102
1713722595369036102,-0.004261057823896408,-0.001065264455974102,-0.00532632227987051,0.0933738648891449,-0.3315969407558441,9.864110946655273
1713722595378036102,-0.004261057823896408,-0.002130528911948204,-0.006391586735844612,0.08259996026754379,-0.35075053572654724,9.86889934539795
1713722595388036102,-0.004261057823896408,-0.002130528911948204,-0.00532632227987051,0.04908113554120064,-0.3794809579849243,9.864110946655273
1713722595397036102,-0.004261057823896408,-0.002130528911948204,-0.00532632227987051,0.061052143573760986,-0.365115761756897,9.84735107421875
1713722595407036102,-0.004261057823896408,-0.002130528911948204,-0.006391586735844612,0.08738835901021957,-0.33758243918418884,9.853337287902832
1713722595416036102,-0.004261057823896408,-0.002130528911948204,-0.006391586735844612,0.06823474913835526,-0.35075053572654724,9.862914085388184
1713722595425036102,-0.004261057823896408,-0.002130528911948204,-0.00532632227987051,0.04668693244457245,-0.37469255924224854,9.856927871704102
1713722595435036102,-0.004261057823896408,-0.003195793367922306,-0.00532632227987051,0.07302314788103104,-0.35913026332855225,9.855731010437012
1713722595444036102,-0.004261057823896408,-0.002130528911948204,-0.006391586735844612,0.10055647045373917,-0.34356793761253357,9.865307807922363
1713722595454036102,-0.004261057823896408,-0.002130528911948204,-0.006391586735844612,0.08259996026754379,-0.36750996112823486,9.861716270446777
1713722595463036102,-0.004261057823896408,-0.002130528911948204,-0.006391586735844612,0.061052143573760986,-0.38786065578460693,9.858125686645508
1713722595473036102,-0.004261057823896408,-0.001065264455974102,-0.00532632227987051,0.07422025501728058,-0.3627215623855591,9.858125686645508
1713722595482036102,-0.004261057823896408,-0.002130528911948204,-0.006391586735844612,0.08738835901021957,-0.3315969407558441,9.860519409179688
1713722595492036102,-0.004261057823896408,-0.002130528911948204,-0.006391586735844612,0.06584054231643677,-0.3579331338405609,9.861716270446777
1713722595501036102,-0.004261057823896408,-0.003195793367922306,-0.00532632227987051,0.05147533491253853,-0.3818751573562622,9.853337287902832
1713722595511036102,-0.004261057823896408,-0.003195793367922306,-0.00532632227987051,0.07661445438861847,-0.35673603415489197,9.853337287902832
1713722595520036102,-0.004261057823896408,-0.002130528911948204,-0.006391586735844612,0.08978256583213806,-0.3363853394985199,9.856927871704102
1713722595530036102,-0.004261057823896408,-0.002130528911948204,-0.006391586735844612,0.0694318488240242,-0.35913026332855225,9.850942611694336
1713722595540036102,-0.004261057823896408,-0.002130528911948204,-0.00532632227987051,0.05386953800916672,-0.3770867586135864,9.84495735168457
1713722595548036102,-0.004261057823896408,-0.002130528911948204,-0.00532632227987051,0.07900865375995636,-0.355538934469223,9.854534149169922
1713722595558036102,-0.004261057823896408,-0.002130528911948204,-0.00532632227987051,0.09457096457481384,-0.3387795388698578,9.860519409179688
1713722595568036102,-0.004261057823896408,-0.002130528911948204,-0.006391586735844612,0.06464344263076782,-0.35673603415489197,9.858125686645508
1713722595577036102,-0.004261057823896408,-0.003195793367922306,-0.00532632227987051,0.04908113554120064,-0.3770867586135864,9.858125686645508
1713722595586036102,-0.004261057823896408,-0.002130528911948204,-0.00532632227987051,0.07661445438861847,-0.3579331338405609,9.860519409179688
1713722595596036102,-0.004261057823896408,-0.002130528911948204,-0.00532632227987051,0.090979665517807,-0.33997663855552673,9.858125686645508
1713722595605036102,-0.004261057823896408,-0.002130528911948204,-0.00532632227987051,0.07062894850969315,-0.3711012601852417,9.855731010437012
1713722595615036102,-0.004261057823896408,-0.002130528911948204,-0.00532632227987051,0.061052143573760986,-0.38307225704193115,9.859322547912598
1713722595625036102,-0.004261057823896408,-0.003195793367922306,-0.00532632227987051,0.07541735470294952,-0.34356793761253357,9.865307807922363
1713722595634036102,-0.004261057823896408,-0.002130528911948204,-0.006391586735844612,0.07661445438861847,-0.33039984107017517,9.864110946655273
1713722595643036102,-0.004261057823896408,-0.002130528911948204,-0.006391586735844612,0.05506663769483566,-0.3627215623855591,9.858125686645508
1713722595653036102,-0.004261057823896408,-0.002130528911948204,-0.00532632227987051,0.0586579404771328,-0.37469255924224854,9.850942611694336
1713722595662036102,-0.00532632227987051,-0.002130528911948204,-0.006391586735844612,0.08738835901021957,-0.3423708379268646,9.850942611694336
1713722595672036102,-0.004261057823896408,-0.002130528911948204,-0.006391586735844612,0.08738835901021957,-0.3423708379268646,9.855731010437012
1713722595681036102,-0.004261057823896408,-0.002130528911948204,-0.006391586735844612,0.05626373738050461,-0.3770867586135864,9.849745750427246
1713722595691036102,-0.004261057823896408,-0.002130528911948204,-0.00532632227987051,0.05626373738050461,-0.3758896589279175,9.852139472961426
1713722595700036102,-0.004261057823896408,-0.002130528911948204,-0.00532632227987051,0.08858545869588852,-0.34835633635520935,9.864110946655273
1713722595709036102,-0.003195793367922306,-0.002130528911948204,-0.00532632227987051,0.08499415963888168,-0.35075053572654724,9.871293067932129
1713722595719036102,-0.004261057823896408,-0.002130528911948204,-0.006391586735844612,0.05506663769483566,-0.37828385829925537,9.862914085388184
1713722595728036102,-0.004261057823896408,-0.002130528911948204,-0.00532632227987051,0.05985504016280174,-0.3711012601852417,9.858125686645508
1713722595739036102,-0.004261057823896408,-0.002130528911948204,-0.00532632227987051,0.08978256583213806,-0.34356793761253357,9.864110946655273
1713722595747036102,-0.004261057823896408,-0.002130528911948204,-0.006391586735844612,0.08259996026754379,-0.35913026332855225,9.856927871704102
1713722595757036102,-0.004261057823896408,-0.002130528911948204,-0.00532632227987051,0.04908113554120064,-0.38786065578460693,9.853337287902832
1713722595766036102,-0.004261057823896408,-0.003195793367922306,-0.00532632227987051,0.06224924325942993,-0.36750996112823486,9.853337287902832
1713722595776036102,-0.00532632227987051,-0.002130528911948204,-0.00532632227987051,0.09576806426048279,-0.333991140127182,9.855731010437012
1713722595785036102,-0.004261057823896408,-0.002130528911948204,-0.006391586735844612,0.07781155407428741,-0.35314473509788513,9.864110946655273
1713722595795036102,-0.004261057823896408,-0.002130528911948204,-0.00532632227987051,0.05027823522686958,-0.3818751573562622,9.855731010437012
1713722595804036102,-0.004261057823896408,-0.003195793367922306,-0.00532632227987051,0.07182604819536209,-0.355538934469223,9.852139472961426
1713722595814036102,-0.00532632227987051,-0.002130528911948204,-0.00532632227987051,0.09576806426048279,-0.3315969407558441,9.855731010437012
1713722595823036102,-0.004261057823896408,-0.002130528911948204,-0.006391586735844612,0.07062894850969315,-0.365115761756897,9.853337287902832
1713722595833036102,-0.004261057823896408,-0.002130528911948204,-0.00532632227987051,0.040701426565647125,-0.39145198464393616,9.848548889160156
1713722595842036102,-0.003195793367922306,-0.002130528911948204,-0.00532632227987051,0.06464344263076782,-0.3603273630142212,9.854534149169922
1713722595852036102,-0.004261057823896408,-0.002130528911948204,-0.006391586735844612,0.08858545869588852,-0.3315969407558441,9.86770248413086
1713722595862036102,-0.004261057823896408,-0.002130528911948204,-0.006391586735844612,0.07062894850969315,-0.365115761756897,9.859322547912598
1713722595870036102,-0.004261057823896408,-0.002130528911948204,-0.00532632227987051,0.061052143573760986,-0.386663556098938,9.854534149169922
1713722595880036102,-0.004261057823896408,-0.002130528911948204,-0.006391586735844612,0.08858545869588852,-0.35673603415489197,9.858125686645508
1713722595889036102,-0.004261057823896408,-0.002130528911948204,-0.00532632227987051,0.09696516394615173,-0.3387795388698578,9.856927871704102
1713722595899036102,-0.004261057823896408,-0.002130528911948204,-0.006391586735844612,0.06224924325942993,-0.3627215623855591,9.852139472961426
1713722595908036102,-0.004261057823896408,-0.002130528911948204,-0.00532632227987051,0.047884032130241394,-0.37828385829925537,9.84615421295166
1713722595919036102,-0.004261057823896408,-0.002130528911948204,-0.00532632227987051,0.07422025501728058,-0.3543418347835541,9.856927871704102
1713722595927036102,-0.004261057823896408,-0.002130528911948204,-0.006391586735844612,0.08499415963888168,-0.3387795388698578,9.865307807922363
1713722595937036102,-0.004261057823896408,-0.001065264455974102,-0.006391586735844612,0.06224924325942993,-0.3603273630142212,9.856927871704102
1713722595946036102,-0.004261057823896408,-0.002130528911948204,-0.00532632227987051,0.05386953800916672,-0.36750996112823486,9.855731010437012
1713722595956036102,-0.004261057823896408,-0.003195793367922306,-0.00532632227987051,0.07422025501728058,-0.33758243918418884,9.866504669189453
1713722595965036102,-0.004261057823896408,-0.002130528911948204,-0.00532632227987051,0.07661445438861847,-0.35075053572654724,9.86889934539795
1713722595975036102,-0.004261057823896408,-0.002130528911948204,-0.006391586735844612,0.05626373738050461,-0.3794809579849243,9.855731010437012
1713722595984036102,-0.004261057823896408,-0.002130528911948204,-0.006391586735844612,0.06224924325942993,-0.37229835987091064,9.852139472961426
1713722595994036102,-0.004261057823896408,-0.002130528911948204,-0.006391586735844612,0.090979665517807,-0.33997663855552673,9.861716270446777
1713722596003036102,-0.004261057823896408,-0.002130528911948204,-0.006391586735844612,0.08978256583213806,-0.3423708379268646,9.856927871704102
1713722596013036102,-0.004261057823896408,-0.002130528911948204,-0.006391586735844612,0.0586579404771328,-0.37828385829925537,9.84615421295166
1713722596022036102,-0.004261057823896408,-0.002130528911948204,-0.00532632227987051,0.0586579404771328,-0.37229835987091064,9.84495735168457
1713722596032036102,-0.00532632227987051,-0.002130528911948204,-0.006391586735844612,0.08259996026754379,-0.3387795388698578,9.859322547912598
1713722596041036102,-0.004261057823896408,-0.002130528911948204,-0.006391586735844612,0.07900865375995636,-0.34835633635520935,9.86770248413086
1713722596050036102,-0.004261057823896408,-0.002130528911948204,-0.006391586735844612,0.05267243832349777,-0.3818751573562622,9.855731010437012
1713722596060036102,-0.004261057823896408,-0.002130528911948204,-0.00532632227987051,0.06703764945268631,-0.37229835987091064,9.856927871704102
1713722596070036102,-0.004261057823896408,-0.002130528911948204,-0.00532632227987051,0.09696516394615173,-0.3411737382411957,9.86770248413086
1713722596079036102,-0.004261057823896408,-0.002130528911948204,-0.006391586735844612,0.07062894850969315,-0.3543418347835541,9.860519409179688
1713722596088036102,-0.004261057823896408,-0.002130528911948204,-0.006391586735844612,0.043095629662275314,-0.3902548849582672,9.856927871704102
1713722596098036102,-0.004261057823896408,-0.002130528911948204,-0.00532632227987051,0.06344634294509888,-0.36990416049957275,9.864110946655273
1713722596107036102,-0.004261057823896408,-0.002130528911948204,-0.00532632227987051,0.08978256583213806,-0.3411737382411957,9.866504669189453
1713722596117036102,-0.004261057823896408,-0.002130528911948204,-0.006391586735844612,0.07422025501728058,-0.36750996112823486,9.859322547912598
1713722596126036102,-0.004261057823896408,-0.002130528911948204,-0.00532632227987051,0.061052143573760986,-0.3902548849582672,9.854534149169922
1713722596136036102,-0.004261057823896408,-0.002130528911948204,-0.00532632227987051,0.08140285313129425,-0.3603273630142212,9.864110946655273
1713722596145036102,-0.004261057823896408,-0.002130528911948204,-0.006391586735844612,0.09576806426048279,-0.3315969407558441,9.86889934539795
1713722596155036102,-0.004261057823896408,-0.002130528911948204,-0.00532632227987051,0.06584054231643677,-0.3579331338405609,9.859322547912598
1713722596164036102,-0.004261057823896408,-0.002130528911948204,-0.00532632227987051,0.04668693244457245,-0.38546645641326904,9.853337287902832
1713722596174036102,-0.004261057823896408,-0.003195793367922306,-0.00532632227987051,0.07900865375995636,-0.3519476354122162,9.861716270446777
1713722596183036102,-0.004261057823896408,-0.003195793367922306,-0.006391586735844612,0.09816227108240128,-0.333991140127182,9.86889934539795
1713722596193036102,-0.004261057823896408,-0.002130528911948204,-0.006391586735844612,0.06344634294509888,-0.37469255924224854,9.861716270446777
1713722596202036102,-0.004261057823896408,-0.002130528911948204,-0.00532632227987051,0.04908113554120064,-0.39145198464393616,9.852139472961426
1713722596212036102,-0.004261057823896408,-0.002130528911948204,-0.00532632227987051,0.08259996026754379,-0.35075053572654724,9.858125686645508
1713722596221036102,-0.004261057823896408,-0.002130528911948204,-0.006391586735844612,0.08140285313129425,-0.333991140127182,9.865307807922363
1713722596231036102,-0.004261057823896408,-0.002130528911948204,-0.006391586735844612,0.04668693244457245,-0.3687070608139038,9.859322547912598
1713722596240036102,-0.004261057823896408,-0.002130528911948204,-0.006391586735844612,0.04429272934794426,-0.37229835987091064,9.856927871704102
1713722596250036102,-0.004261057823896408,-0.003195793367922306,-0.00532632227987051,0.0802057534456253,-0.3411737382411957,9.860519409179688
1713722596259036102,-0.004261057823896408,-0.003195793367922306,-0.006391586735844612,0.09217676520347595,-0.3363853394985199,9.860519409179688
1713722596269036102,-0.004261057823896408,-0.002130528911948204,-0.006391586735844612,0.06224924325942993,-0.3734954595565796,9.854534149169922
1713722596278036102,-0.004261057823896408,-0.002130528911948204,-0.006391586735844612,0.05506663769483566,-0.3794809579849243,9.854534149169922
1713722596287036102,-0.004261057823896408,-0.002130528911948204,-0.00532632227987051,0.08259996026754379,-0.33997663855552673,9.856927871704102
1713722596297036102,-0.00532632227987051,-0.001065264455974102,-0.006391586735844612,0.07900865375995636,-0.33758243918418884,9.861716270446777
1713722596306036102,-0.004261057823896408,-0.002130528911948204,-0.006391586735844612,0.04668693244457245,-0.37828385829925537,9.864110946655273
1713722596316036102,-0.004261057823896408,-0.002130528911948204,-0.00532632227987051,0.05626373738050461,-0.38307225704193115,9.860519409179688
1713722596326036102,-0.004261057823896408,-0.003195793367922306,-0.00532632227987051,0.09457096457481384,-0.3447650372982025,9.858125686645508
1713722596335036102,-0.004261057823896408,-0.002130528911948204,-0.00532632227987051,0.08858545869588852,-0.3495534360408783,9.855731010437012
1713722596344036102,-0.004261057823896408,-0.002130528911948204,-0.00532632227987051,0.05506663769483566,-0.38546645641326904,9.849745750427246
1713722596354036102,-0.00532632227987051,-0.002130528911948204,-0.00532632227987051,0.06584054231643677,-0.3758896589279175,9.856927871704102
1713722596363036102,-0.004261057823896408,-0.002130528911948204,-0.006391586735844612,0.09935937076807022,-0.3363853394985199,9.86889934539795
1713722596372036102,-0.004261057823896408,-0.002130528911948204,-0.006391586735844612,0.08259996026754379,-0.3495534360408783,9.864110946655273
1713722596383036102,-0.004261057823896408,-0.002130528911948204,-0.006391586735844612,0.043095629662275314,-0.39624038338661194,9.854534149169922
1713722596392036102,-0.004261057823896408,-0.002130528911948204,-0.00532632227987051,0.0586579404771328,-0.37229835987091064,9.850942611694336
1713722596401036102,-0.004261057823896408,-0.002130528911948204,-0.006391586735844612,0.09457096457481384,-0.325611412525177,9.858125686645508
1713722596411036102,-0.004261057823896408,-0.002130528911948204,-0.006391586735844612,0.07781155407428741,-0.3519476354122162,9.856927871704102
1713722596420036102,-0.004261057823896408,-0.002130528911948204,-0.006391586735844612,0.043095629662275314,-0.39145198464393616,9.853337287902832
1713722596429036102,-0.004261057823896408,-0.003195793367922306,-0.00532632227987051,0.05626373738050461,-0.3663128614425659,9.864110946655273
1713722596440036102,-0.003195793367922306,-0.002130528911948204,-0.006391586735844612,0.08858545869588852,-0.325611412525177,9.864110946655273
1713722596448036102,-0.004261057823896408,-0.002130528911948204,-0.006391586735844612,0.07422025501728058,-0.3519476354122162,9.860519409179688
1713722596458036102,-0.003195793367922306,-0.002130528911948204,-0.006391586735844612,0.047884032130241394,-0.39145198464393616,9.861716270446777
1713722596468036102,-0.004261057823896408,-0.003195793367922306,-0.00532632227987051,0.07062894850969315,-0.36990416049957275,9.871293067932129
1713722596476860076,-0.004261057823896408,-0.003195793367922306,-0.006391586735844612,0.09935937076807022,-0.33039984107017517,9.876081466674805
1713722596485860076,-0.004261057823896408,-0.002130528911948204,-0.00532632227987051,0.07182604819536209,-0.3603273630142212,9.865307807922363
1713722596495860076,-0.004261057823896408,-0.002130528911948204,-0.006391586735844612,0.047884032130241394,-0.395043283700943,9.855731010437012
1713722596504860076,-0.004261057823896408,-0.003195793367922306,-0.00532632227987051,0.08619125932455063,-0.355538934469223,9.865307807922363
1713722596514860076,-0.003195793367922306,-0.002130528911948204,-0.006391586735844612,0.09935937076807022,-0.33039984107017517,9.871293067932129
1713722596523860076,-0.004261057823896408,-0.002130528911948204,-0.00532632227987051,0.061052143573760986,-0.365115761756897,9.856927871704102
1713722596533860076,-0.003195793367922306,-0.002130528911948204,-0.006391586735844612,0.043095629662275314,-0.395043283700943,9.848548889160156
1713722596542860076,-0.004261057823896408,-0.002130528911948204,-0.00532632227987051,0.07302314788103104,-0.35913026332855225,9.862914085388184
1713722596552860076,-0.004261057823896408,-0.002130528911948204,-0.006391586735844612,0.0933738648891449,-0.333991140127182,9.873687744140625
1713722596562860076,-0.004261057823896408,-0.002130528911948204,-0.006391586735844612,0.06464344263076782,-0.363918662071228,9.862914085388184
1713722596570860076,-0.004261057823896408,-0.003195793367922306,-0.00532632227987051,0.05267243832349777,-0.37469255924224854,9.854534149169922
1713722596580860076,-0.004261057823896408,-0.002130528911948204,-0.00532632227987051,0.08738835901021957,-0.3471592366695404,9.864110946655273
1713722596589860076,-0.004261057823896408,-0.002130528911948204,-0.00532632227987051,0.09217676520347595,-0.3423708379268646,9.864110946655273
1713722596599860076,-0.004261057823896408,-0.002130528911948204,-0.00532632227987051,0.05626373738050461,-0.3818751573562622,9.854534149169922
1713722596608860076,-0.004261057823896408,-0.003195793367922306,-0.00532632227987051,0.05147533491253853,-0.3818751573562622,9.858125686645508
1713722596618860076,-0.004261057823896408,-0.002130528911948204,-0.00532632227987051,0.08858545869588852,-0.3315969407558441,9.871293067932129
1713722596628860076,-0.004261057823896408,-0.001065264455974102,-0.006391586735844612,0.08379705995321274,-0.325611412525177,9.872490882873535
1713722596637860076,-0.004261057823896408,-0.001065264455974102,-0.00532632227987051,0.040701426565647125,-0.36990416049957275,9.862914085388184
1713722596646860076,-0.004261057823896408,-0.003195793367922306,-0.006391586735844612,0.04668693244457245,-0.3758896589279175,9.864110946655273
1713722596656860076,-0.004261057823896408,-0.003195793367922306,-0.00532632227987051,0.09217676520347595,-0.3447650372982025,9.866504669189453
1713722596665860076,-0.004261057823896408,-0.002130528911948204,-0.006391586735844612,0.08619125932455063,-0.3471592366695404,9.864110946655273
1713722596675860076,-0.004261057823896408,-0.002130528911948204,-0.00532632227987051,0.047884032130241394,-0.3818751573562622,9.856927871704102
1713722596684860076,-0.004261057823896408,-0.002130528911948204,-0.00532632227987051,0.061052143573760986,-0.3818751573562622,9.860519409179688
1713722596694860076,-0.00532632227987051,-0.002130528911948204,-0.00532632227987051,0.09576806426048279,-0.3471592366695404,9.866504669189453
1713722596703860076,-0.004261057823896408,-0.002130528911948204,-0.006391586735844612,0.08140285313129425,-0.355538934469223,9.859322547912598
1713722596713860076,-0.004261057823896408,-0.002130528911948204,-0.00532632227987051,0.04429272934794426,-0.3842693567276001,9.84615421295166
1713722596722860076,-0.004261057823896408,-0.002130528911948204,-0.00532632227987051,0.061052143573760986,-0.36750996112823486,9.848548889160156
1713722596732860076,-0.004261057823896408,-0.002130528911948204,-0.00532632227987051,0.09816227108240128,-0.3315969407558441,9.856927871704102
1713722596741860076,-0.004261057823896408,-0.002130528911948204,-0.00532632227987051,0.07661445438861847,-0.35314473509788513,9.858125686645508
1713722596751860076,-0.004261057823896408,-0.003195793367922306,-0.00532632227987051,0.04189852997660637,-0.3974374830722809,9.854534149169922
1713722596761860076,-0.004261057823896408,-0.003195793367922306,-0.00532632227987051,0.06224924325942993,-0.3711012601852417,9.877279281616211
1713722596770860076,0.0,-0.004261057823896408,-0.008522115647792816,0.07182604819536209,-0.34596213698387146,10.218452453613281
1713722596779860076,0.008522115647792816,0.0,-0.001065264455974102,0.17956513166427612,-0.21308395266532898,10.272322654724121
1713722596789860076,0.03195793181657791,0.007456851191818714,-0.008522115647792816,0.27653029561042786,0.008379706181585789,9.78869342803955
1713722596798860076,0.044741105288267136,0.006391586735844612,-0.003195793367922306,0.11851298063993454,0.3627215623855591,9.93593692779541
1713722596807860076,0.05326322093605995,0.00532632227987051,-0.009587380103766918,-0.10175357013940811,1.1264718770980835,10.706870079040527
1713722596817860076,0.09054747968912125,0.0,-0.008522115647792816,-0.152031809091568,1.547851324081421,9.190142631530762
1713722596826860076,0.05326322093605995,-0.007456851191818714,-0.001065264455974102,-0.07781155407428741,2.1092915534973145,9.080009460449219
1713722596836860076,0.027696875855326653,-0.013848437927663326,-0.009587380103766918,0.13407529890537262,3.0849287509918213,11.264719009399414
1713722596845860076,0.026631610468029976,-0.012783173471689224,-0.012783173471689224,0.45848962664604187,3.1088707447052,9.874884605407715
1713722596855860076,-0.001065264455974102,0.0,-0.013848437927663326,0.669179379940033,2.5246856212615967,8.068459510803223
1713722596864860076,-0.06285060197114944,0.01065264455974102,-0.017044231295585632,0.5949591398239136,2.7102363109588623,10.44470500946045
1713722596874860076,-0.020240023732185364,0.022370552644133568,-0.019174760207533836,0.2585737705230713,2.360682725906372,10.121487617492676
1713722596883860076,-0.04367584362626076,0.024501081556081772,-0.014913702383637428,-0.20350714027881622,1.6089035272598267,8.438364028930664
1713722596893860076,-0.05752427875995636,0.009587380103766918,-0.00532632227987051,-0.6643909811973572,1.8136078119277954,10.588356971740723
1713722596902860076,-0.022370552644133568,-0.008522115647792816,-0.02130528911948204,-0.7673416137695312,1.5358803272247314,9.856927871704102
1713722596912860076,-0.03941478580236435,-0.023435818031430244,0.01065264455974102,-0.5518634915351868,1.3108254671096802,9.315838813781738
1713722596921860076,-0.04687163606286049,-0.03515372797846794,-0.012783173471689224,-0.0011971008498221636,1.5610195398330688,10.888829231262207
1713722596931860076,-0.02556634694337845,-0.023435818031430244,0.003195793367922306,0.7457938194274902,1.1468225717544556,10.146626472473145
1713722596940860076,-0.05965480953454971,-0.001065264455974102,-0.001065264455974102,1.1839326620101929,0.7924807667732239,10.269927978515625
1713722596949860076,-0.04580637067556381,0.02556634694337845,-0.012783173471689224,1.2090718746185303,0.363918662071228,10.052055358886719
1713722596959860076,-0.041545312851667404,0.04261057823896408,-0.006391586735844612,0.3734954595565796,-0.7757213115692139,9.095572471618652
1713722596968860076,-0.013848437927663326,0.020240023732185364,-0.019174760207533836,-0.9840168952941895,-1.8543092012405396,9.242815971374512
1713722596978860076,-0.002130528911948204,0.004261057823896408,0.022370552644133568,-0.7960720658302307,-0.95528644323349,9.521739959716797
1713722596987860076,0.008522115647792816,-0.002130528911948204,-0.017044231295585632,0.10654197633266449,0.6979097723960876,9.524134635925293
1713722596997860076,-0.0511326938867569,0.001065264455974102,0.007456851191818714,0.08738835901021957,1.2761094570159912,9.75637149810791
1713722597006860076,-0.10865697264671326,-0.008522115647792816,-0.022370552644133568,-0.529118537902832,0.34356793761253357,11.076773643493652
1713722597016860076,-0.0788295716047287,-0.06391586363315582,-0.024501081556081772,-2.583343505859375,-3.977966070175171,10.886434555053711
1713722597025860076,-0.06072007119655609,-0.11398329585790634,0.041545312851667404,-1.7393875122070312,-6.074089527130127,9.824606895446777
1713722597035860076,-0.006391586735844612,-0.09161274135112762,0.003195793367922306,2.87064790725708,-3.3063924312591553,9.719261169433594
1713722597044860076,0.017044231295585632,0.017044231295585632,-0.024501081556081772,4.9583916664123535,-1.525106430053711,9.891644477844238
1713722597054860076,0.03834952041506767,0.11824434995651245,-0.05326322093605995,3.043030261993408,-1.8136078119277954,9.241618156433105
1713722597063860076,0.05432848632335663,0.1203748807311058,-0.06391586363315582,-1.1348515748977661,-2.692279815673828,9.042900085449219
1713722597073860076,0.022370552644133568,0.05965480953454971,0.0,-3.112462043762207,-1.5765818357467651,9.339780807495117
1713722597082860076,-0.023435818031430244,-0.017044231295585632,-0.02876213937997818,-1.9213467836380005,0.7972691655158997,10.244789123535156
1713722597091860076,-0.06178533658385277,-0.05326322093605995,0.013848437927663326,-1.0522515773773193,0.416591078042984,10.735600471496582
1713722597101860076,-0.07030745595693588,-0.07456851005554199,-0.02130528911948204,-0.5530605912208557,-1.821987509727478,9.911994934082031
1713722597111860076,-0.04048004746437073,-0.05965480953454971,0.02556634694337845,0.7984662652015686,-2.8395230770111084,9.712079048156738
1713722597120860076,0.007456851191818714,-0.007456851191818714,-0.015978965908288956,2.4899697303771973,-1.8926163911819458,10.050858497619629
1713722597130860076,0.044741105288267136,0.06711165606975555,-0.015978965908288956,2.3774423599243164,-0.7793126106262207,10.922348022460938
1713722597139860076,0.09161274135112762,0.10439591109752655,-0.024501081556081772,0.11971008032560349,-0.5099649429321289,10.755950927734375
1713722597149860076,0.09587380290031433,0.07989483326673508,-0.004261057823896408,-1.9500772953033447,0.2106897532939911,10.163386344909668
1713722597158860076,0.11930961906909943,0.01810949482023716,0.015978965908288956,-2.675520420074463,1.422155737876892,9.703699111938477
1713722597168860076,0.10333064943552017,-0.044741105288267136,0.023435818031430244,-2.233790159225464,2.383427858352661,9.551667213439941
1713722597177860076,0.092678003013134,-0.08202536404132843,0.041545312851667404,-0.8643068075180054,3.207033157348633,9.363722801208496
1713722597186860076,0.05432848632335663,-0.07669904083013535,0.030892668291926384,0.8451532125473022,3.7696704864501953,8.641870498657227
1713722597196860076,-0.004261057823896408,-0.04048004746437073,0.023435818031430244,1.8351556062698364,4.110844135284424,9.229647636413574
1713722597205860076,-0.0511326938867569,-0.001065264455974102,-0.004261057823896408,1.7968482971191406,3.9025487899780273,9.697713851928711
1713722597215860076,-0.08735168725252151,0.03302319720387459,0.012783173471689224,1.2773065567016602,3.227383852005005,9.532513618469238
1713722597225860076,-0.12357067316770554,0.049002163112163544,-0.00532632227987051,0.7050923705101013,2.431311845779419,9.848548889160156
1713722597234860076,-0.13741911947727203,0.05006742849946022,0.002130528911948204,0.1604115068912506,1.5167267322540283,10.190918922424316
1713722597243860076,-0.12250541150569916,0.030892668291926384,-0.009587380103766918,-0.9624690413475037,-0.12449848651885986,10.741585731506348
1713722597252860076,-0.05752427875995636,-0.027696875855326653,-0.008522115647792816,-2.4851813316345215,-2.6898856163024902,10.231620788574219
1713722597262860076,-0.027696875855326653,-0.0649811327457428,0.052197955548763275,-1.0977414846420288,-2.470816135406494,9.549273490905762
1713722597272860076,0.044741105288267136,-0.06178533658385277,-0.00532632227987051,1.821987509727478,-0.4596867263317108,9.117119789123535
1713722597281860076,0.03515372797846794,0.0,0.006391586735844612,2.6132709980010986,0.6584054827690125,8.78432559967041
1713722597290860076,-0.008522115647792816,0.05752427875995636,-0.03834952041506767,2.0195090770721436,2.098517656326294,9.959878921508789
1713722597300860076,-0.08735168725252151,0.08309062570333481,-0.027696875855326653,0.5889735817909241,2.8143839836120605,11.313799858093262
1713722597309860076,-0.12889699637889862,0.04048004746437073,-0.04261057823896408,-2.425326347351074,0.017956512048840523,12.406752586364746
1713722597319860076,-0.06285060197114944,-0.09587380290031433,-0.012783173471689224,-5.706579685211182,-6.652289390563965,10.854113578796387
1713722597328860076,-0.004261057823896408,-0.15552860498428345,0.08628641813993454,-1.824381709098816,-6.732494831085205,9.552865028381348
1713722597338860076,0.1757686287164688,-0.10972223430871964,-0.02130528911948204,4.368220806121826,-1.9847931861877441,8.791508674621582
1713722597347860076,0.1768338978290558,0.008522115647792816,-0.01065264455974102,4.72615385055542,0.3280056416988373,8.271966934204102
1713722597357860076,0.16085493564605713,0.10120011866092682,-0.06711165606975555,2.87064790725708,2.6216509342193604,8.83939266204834
1713722597366860076,0.05645901337265968,0.14487595856189728,-0.017044231295585632,0.4453215003013611,4.657919406890869,9.039308547973633
1713722597376860076,-0.10333064943552017,0.11824434995651245,-0.034088462591171265,-1.423352837562561,5.645527362823486,10.340557098388672
1713722597385860076,-0.2364886999130249,0.06604639440774918,-0.007456851191818714,-2.2002713680267334,4.145560264587402,10.45547866821289
1713722597395860076,-0.2269013226032257,-0.05006742849946022,-0.030892668291926384,-5.076904773712158,-1.6364368200302124,9.987412452697754
1713722597405860076,-0.148071750998497,-0.1768338978290558,0.044741105288267136,-4.475959777832031,-6.831854343414307,8.486248016357422
1713722597414860076,-0.037284255027770996,-0.1757686287164688,0.05645901337265968,1.9177554845809937,-4.225765705108643,9.285911560058594
1713722597423860076,0.06285060197114944,-0.07243797928094864,-0.02556634694337845,5.39174222946167,-0.1149216815829277,10.068815231323242
1713722597433860076,0.01810949482023716,0.06711165606975555,-0.022370552644133568,5.238513469696045,1.482010841369629,10.498574256896973
1713722597442860076,-0.0788295716047287,0.17257283627986908,-0.03515372797846794,3.2585084438323975,2.337937831878662,12.60427474975586
1713722597451860076,-0.0511326938867569,0.13635385036468506,-0.08202536404132843,-3.163937568664551,-2.1739351749420166,12.415132522583008
1713722597462860076,0.03621898964047432,-0.012783173471689224,0.023435818031430244,-6.877344131469727,-8.26239013671875,9.265560150146484
1713722597471860076,0.1065264418721199,-0.09587380290031433,0.04261057823896408,-2.078166961669922,-4.718971252441406,9.159018516540527
1713722597480860076,0.23968449234962463,-0.1161138266324997,-0.015978965908288956,2.144007682800293,1.2114660739898682,8.868123054504395
1713722597490860076,0.16085493564605713,-0.055393751710653305,-0.05752427875995636,2.492363929748535,2.9712042808532715,7.696161270141602
1713722597499860076,0.05432848632335663,-0.008522115647792816,-0.044741105288267136,1.9333178997039795,4.8686089515686035,9.437942504882812
1713722597509860076,-0.0884169489145279,0.020240023732185364,-0.07030745595693588,1.5909470319747925,5.316324710845947,10.18493366241455
1713722597518860076,-0.20666129887104034,0.041545312851667404,-0.06285060197114944,1.4269441366195679,3.537432909011841,9.72165584564209
1713722597527860076,-0.2695119082927704,0.06711165606975555,-0.06178533658385277,1.5682021379470825,1.2497732639312744,8.882488250732422
1713722597537860076,-0.23116238415241241,0.0649811327457428,-0.10333064943552017,0.02274491637945175,-1.886630892753601,10.211270332336426
1713722597547860076,-0.1065264418721199,-0.01065264455974102,-0.10759171098470688,-3.0585925579071045,-5.835866451263428,9.400833129882812
1713722597556860076,-0.06924218684434891,-0.0649811327457428,-0.034088462591171265,-1.0450689792633057,-4.083311080932617,10.860098838806152
1713722597565860076,-0.003195793367922306,-0.0511326938867569,-0.10013485699892044,2.9879636764526367,-0.3495534360408783,12.562376022338867
1713722597575860076,-0.02876213937997818,0.024501081556081772,-0.11078750342130661,3.1076736450195312,-1.3251906633377075,11.835736274719238
1713722597584860076,0.0649811327457428,0.04261057823896408,-0.1672465205192566,0.10773907601833344,-4.819528102874756,10.04846477508545
1713722597594860076,0.09693906456232071,0.029827404767274857,-0.09374327212572098,-0.7038952708244324,-4.188655853271484,8.653841972351074
1713722597604860076,0.20026971399784088,0.007456851191818714,-0.16405072808265686,1.136048674583435,-0.11611878126859665,8.009801864624023
1713722597612860076,0.1299622654914856,0.02130528911948204,-0.14594122767448425,1.215057373046875,2.5546131134033203,8.152256965637207
1713722597622860076,0.030892668291926384,0.026631610468029976,-0.1992044448852539,0.9373299479484558,4.570530891418457,9.685742378234863
1713722597632860076,-0.11185276508331299,0.02556634694337845,-0.18322548270225525,0.6248866319656372,4.595670223236084,9.949105262756348
1713722597641860076,-0.20772656798362732,0.011717909015715122,-0.2183792144060135,0.36152446269989014,2.6443958282470703,9.380481719970703
1713722597650860076,-0.23861923813819885,-0.015978965908288956,-0.2173139452934265,-0.08738835901021957,-0.4141968786716461,9.367314338684082
1713722597660860076,-0.15233281254768372,-0.07456851005554199,-0.23755396902561188,-1.1348515748977661,-4.181473255157471,9.86770248413086
1713722597669860076,-0.11504855751991272,-0.0884169489145279,-0.19174760580062866,0.8858546018600464,-4.501099109649658,10.800243377685547
1713722597679860076,-0.027696875855326653,-0.01810949482023716,-0.23861923813819885,4.896142482757568,-2.825157880783081,12.448651313781738
1713722597688860076,0.04687163606286049,0.06072007119655609,-0.3067961633205414,3.0573954582214355,-4.899733543395996,11.615468978881836
1713722597698860076,0.12463594228029251,0.09161274135112762,-0.2780340313911438,-0.41539397835731506,-5.646724700927734,9.287108421325684
1713722597707860076,0.19281286001205444,0.055393751710653305,-0.28975191712379456,-0.23702596127986908,-1.9393033981323242,8.473079681396484
1713722597717860076,0.18642127513885498,0.007456851191818714,-0.31744879484176636,0.3100491166114807,1.9919757843017578,9.041702270507812
1713722597726860076,0.1161138266324997,0.003195793367922306,-0.32703617215156555,0.6751648783683777,4.11443567276001,8.572439193725586
1713722597736860076,-0.041545312851667404,0.013848437927663326,-0.3291667103767395,0.9253589510917664,5.183446407318115,9.41878890991211
1713722597745860076,-0.16937704384326935,0.022370552644133568,-0.3526025414466858,0.811634361743927,4.310760021209717,10.290278434753418
1713722597755860076,-0.22903186082839966,0.017044231295585632,-0.34514567255973816,0.6009446382522583,1.625662922859192,8.653841972351074
1713722597764860076,-0.22903186082839966,-0.01065264455974102,-0.3717772960662842,-0.34835633635520935,-1.625662922859192,9.008183479309082
1713722597774860076,-0.14168016612529755,-0.06711165606975555,-0.3675162196159363,-1.258152961730957,-4.651933670043945,10.199298858642578
1713722597783860076,-0.09906959533691406,-0.07030745595693588,-0.3376888334751129,1.0402805805206299,-3.9923312664031982,11.73278522491455
1713722597792860076,-0.020240023732185364,-0.003195793367922306,-0.370712012052536,4.211400508880615,-2.9676129817962646,13.008894920349121
1713722597802860076,0.06178533658385277,0.06817692518234253,-0.42930155992507935,2.359485626220703,-5.7305216789245605,10.706870079040527
1713722597812860076,0.13102751970291138,0.092678003013134,-0.3717772960662842,-0.2585737705230713,-5.459976673126221,8.877699851989746
1713722597821860076,0.21944446861743927,0.05645901337265968,-0.4207794666290283,0.14006079733371735,-1.1456254720687866,8.537723541259766
1713722597831860076,0.1896170675754547,0.034088462591171265,-0.4069310128688812,0.4034229815006256,2.5055320262908936,8.808267593383789
1713722597840860076,0.09374327212572098,0.026631610468029976,-0.43888893723487854,0.44173020124435425,4.818330764770508,9.271546363830566
1713722597850860076,-0.06072007119655609,0.03195793181657791,-0.4175836443901062,0.3926490843296051,5.47075080871582,9.296685218811035
1713722597859860076,-0.19600865244865417,0.027696875855326653,-0.4506068527698517,0.19153612852096558,3.9240965843200684,9.276334762573242
1713722597869860076,-0.2599245309829712,0.015978965908288956,-0.4261057674884796,-0.0011971008498221636,1.279700756072998,8.847772598266602
1713722597878860076,-0.20026971399784088,-0.041545312851667404,-0.46658581495285034,-1.5909470319747925,-2.8574795722961426,9.318232536315918
1713722597887860076,-0.14594122767448425,-0.09800432622432709,-0.4037352204322815,-1.8327614068984985,-5.7975592613220215,11.36288070678711
1713722597897860076,-0.04367584362626076,-0.052197955548763275,-0.3834952116012573,3.1256303787231445,-5.188234806060791,13.059172630310059
1713722597906860076,0.05006742849946022,0.05432848632335663,-0.45593318343162537,4.7369279861450195,-4.90691614151001,12.02607536315918
1713722597916860076,0.1342233121395111,0.13528858125209808,-0.4538026452064514,1.43532395362854,-4.417302131652832,9.424775123596191
1713722597926860076,0.18855179846286774,0.13528858125209808,-0.45167210698127747,-0.28969839215278625,-1.422155737876892,8.271966934204102
1713722597935860076,0.18429075181484222,0.07989483326673508,-0.45699843764305115,-1.4939818382263184,1.9057844877243042,8.242039680480957
1713722597944860076,0.09480853378772736,0.009587380103766918,-0.47084689140319824,-1.9381062984466553,4.226963043212891,8.949525833129883
1713722597954860076,-0.044741105288267136,-0.034088462591171265,-0.4303668439388275,-1.1480196714401245,5.262455463409424,9.831789016723633
1713722597963860076,-0.18002969026565552,-0.049002163112163544,-0.4644553065299988,0.304063618183136,3.936067581176758,9.821015357971191
1713722597973860076,-0.24501082301139832,-0.027696875855326653,-0.42504051327705383,1.5286977291107178,1.2461819648742676,9.103951454162598
1713722597982860076,-0.2173139452934265,-0.009587380103766918,-0.4878911077976227,1.1994950771331787,-2.076969861984253,9.640253067016602
1713722597992860076,-0.11398329585790634,-0.027696875855326653,-0.45699843764305115,-0.5781996846199036,-5.808333396911621,10.78587818145752
1713722598001860076,-0.04367584362626076,-0.019174760207533836,-0.4218447208404541,0.47644612193107605,-5.69819974899292,11.84770679473877
1713722598011860076,0.04048004746437073,0.04687163606286049,-0.44208472967147827,3.317166328430176,-2.9101521968841553,11.751938819885254
1713722598020860076,0.09906959533691406,0.12250541150569916,-0.471912145614624,2.4013843536376953,-2.5725696086883545,9.569623947143555
1713722598030860076,0.11930961906909943,0.14168016612529755,-0.4644553065299988,-0.104147769510746,-1.765723705291748,8.542511940002441
1713722598039860076,0.15020228922367096,0.09374327212572098,-0.4687163531780243,-1.4437036514282227,0.7601590156555176,8.299500465393066
1713722598048860076,0.07989483326673508,0.03621898964047432,-0.445280522108078,-1.8962076902389526,3.0765490531921387,9.097966194152832
1713722598058860076,-0.022370552644133568,-0.009587380103766918,-0.45167210698127747,-1.279700756072998,4.288015365600586,10.019734382629395
1713722598067860076,-0.13848437368869781,-0.02130528911948204,-0.4324973523616791,-0.2609679698944092,3.3734302520751953,9.634267807006836
1713722598077860076,-0.20133498311042786,-0.017044231295585632,-0.45593318343162537,0.4010287821292877,1.2306196689605713,9.124302864074707
1713722598086860076,-0.17470337450504303,-0.02876213937997818,-0.4548678994178772,-0.03711012750864029,-1.6400281190872192,9.437942504882812
1713722598096860076,-0.11078750342130661,-0.04687163606286049,-0.43888893723487854,-0.6775590777397156,-4.357447147369385,11.036072731018066
1713722598105860076,-0.03834952041506767,-0.026631610468029976,-0.41971418261528015,0.49559974670410156,-4.598064422607422,12.20803451538086
1713722598115860076,0.04580637067556381,0.020240023732185364,-0.4271710515022278,1.4389152526855469,-4.210203647613525,11.494562149047852
1713722598124860076,0.10013485699892044,0.07350324839353561,-0.41119205951690674,1.3706804513931274,-3.5913023948669434,9.5408935546875
1713722598134860076,0.1810949593782425,0.09374327212572098,-0.41119205951690674,1.1743558645248413,-1.1480196714401245,8.003816604614258
1713722598143860076,0.1672465205192566,0.1065264418721199,-0.41012680530548096,0.20949263870716095,1.8579005002975464,8.158242225646973
1713722598153860076,0.0788295716047287,0.10333064943552017,-0.4122573435306549,-1.2713210582733154,4.4508209228515625,9.330204010009766
1713722598162860076,-0.07456851005554199,0.05645901337265968,-0.3888215124607086,-2.5749638080596924,5.239710330963135,10.528501510620117
1713722598171860076,-0.19600865244865417,-0.008522115647792816,-0.36432042717933655,-2.6360161304473877,3.4081461429595947,10.370484352111816
1713722598181860076,-0.21092236042022705,-0.06391586363315582,-0.3238403797149658,-2.1045031547546387,-0.5746083855628967,9.14345645904541
1713722598190860076,-0.14487595856189728,-0.09800432622432709,-0.3195793330669403,-1.3515268564224243,-4.267664432525635,8.577227592468262
1713722598200860076,-0.08309062570333481,-0.06072007119655609,-0.2727077007293701,1.5514426231384277,-3.3901896476745605,9.712079048156738
1713722598209860076,-0.023435818031430244,0.03621898964047432,-0.3291667103767395,3.9181110858917236,-0.8415618538856506,11.364078521728516
1713722598219860076,0.020240023732185364,0.12250541150569916,-0.3185140788555145,1.1336544752120972,-2.2613234519958496,11.729193687438965
1713722598229860076,0.08309062570333481,0.09693906456232071,-0.31744879484176636,-3.823539972305298,-5.128379821777344,10.339360237121582
1713722598238860076,0.10546118021011353,0.03195793181657791,-0.2173139452934265,-3.5841197967529297,-2.7736825942993164,9.841365814208984
1713722598248860076,0.15872439742088318,-0.023435818031430244,-0.2599245309829712,-0.751779317855835,1.5622166395187378,9.350554466247559
1713722598257860076,0.06072007119655609,-0.013848437927663326,-0.22050973773002625,0.03950432687997818,3.135207176208496,8.935160636901855
1713722598266860076,-0.049002163112163544,0.011717909015715122,-0.23435817658901215,0.40940847992897034,3.5218706130981445,10.159794807434082
1713722598276860076,-0.11930961906909943,0.03834952041506767,-0.20772656798362732,0.23343466222286224,2.0410568714141846,9.41519832611084
1713722598285860076,-0.12144014239311218,0.034088462591171265,-0.20026971399784088,-1.1121066808700562,-0.8259995579719543,8.7484130859375
1713722598295860076,-0.06178533658385277,-0.011717909015715122,-0.18748654425144196,-2.716221809387207,-3.375824451446533,8.87410831451416
1713722598305860076,-0.03834952041506767,-0.037284255027770996,-0.11717908829450607,-1.3192051649093628,-1.9500772953033447,10.156203269958496
1713722598313860076,-0.013848437927663326,-0.020240023732185364,-0.15552860498428345,1.1755529642105103,0.5207388401031494,11.589133262634277
1713722598323860076,-0.034088462591171265,0.026631610468029976,-0.1257012039422989,0.729034423828125,-0.608127236366272,11.850101470947266
1713722598332860076,0.03302319720387459,0.015978965908288956,-0.148071750998497,-2.191891670227051,-4.644751071929932,10.54526138305664
1713722598342860076,0.07137271761894226,0.001065264455974102,-0.05006742849946022,-2.1368250846862793,-4.710591793060303,8.71728801727295
1713722598351860076,0.18748654425144196,-0.007456851191818714,-0.09693906456232071,0.6236895322799683,-0.5638344883918762,7.8098859786987305
1713722598362860076,0.14061491191387177,0.03302319720387459,-0.06924218684434891,1.1516109704971313,2.5893290042877197,8.541314125061035
1713722598370860076,0.037284255027770996,0.06604639440774918,-0.09054747968912125,0.4297592043876648,5.035006046295166,10.553641319274902
1713722598380860076,-0.12250541150569916,0.07456851005554199,-0.06178533658385277,-0.729034423828125,5.03021764755249,11.189301490783691
1713722598390860076,-0.21411815285682678,0.01810949482023716,-0.06604639440774918,-3.286041736602783,0.7864952683448792,12.356474876403809
1713722598399860076,-0.10013485699892044,-0.11504855751991272,-0.029827404767274857,-5.6874260902404785,-7.1658453941345215,9.299078941345215
1713722598408860076,-0.029827404767274857,-0.15233281254768372,0.07776430249214172,-1.2761094570159912,-7.344213485717773,7.795520782470703
1713722598418860076,0.17257283627986908,-0.08628641813993454,-0.029827404767274857,4.505887508392334,-1.5298948287963867,8.799888610839844
1713722598427860076,0.12144014239311218,0.05006742849946022,-0.013848437927663326,4.448426723480225,1.523909330368042,9.827000617980957
1713722598437860076,0.05326322093605995,0.14274543523788452,-0.0511326938867569,2.4899697303771973,3.4308910369873047,11.583148002624512
1713722598446860076,-0.07456851005554199,0.1757686287164688,-0.009587380103766918,-0.04668693244457245,3.0789432525634766,10.657788276672363
1713722598456860076,-0.06924218684434891,0.08096009492874146,-0.027696875855326653,-4.614823818206787,-1.6160861253738403,10.08198356628418
1713722598465860076,-0.020240023732185364,-0.03621898964047432,0.08202536404132843,-5.384559631347656,-5.628767967224121,7.740454196929932
1713722598475860076,0.07243797928094864,-0.0649811327457428,0.07669904083013535,-0.8008604645729065,-2.4468741416931152,8.220491409301758
1713722598484860076,0.11185276508331299,-0.03515372797846794,0.05326322093605995,1.765723705291748,1.96683669090271,9.866504669189453
1713722598494860076,0.026631610468029976,0.03515372797846794,0.047936901450157166,1.6328455209732056,3.928884983062744,10.360907554626465
1713722598503860076,-0.12783172726631165,0.07137271761894226,0.0511326938867569,0.38546645641326904,4.107253074645996,11.974599838256836
1713722598513860076,-0.1342233121395111,0.013848437927663326,0.02876213937997818,-3.6739025115966797,-1.313219666481018,11.628637313842773
1713722598522860076,-0.05326322093605995,-0.11824434995651245,0.10439591109752655,-6.118382453918457,-8.362946510314941,8.682572364807129
1713722598531860076,0.047936901450157166,-0.14168016612529755,0.1810949593782425,-0.7410054206848145,-5.504269599914551,8.868123054504395
1713722598541860076,0.19387812912464142,-0.07456851005554199,0.08522115647792816,3.931279182434082,0.34356793761253357,9.244012832641602
1713722598550860076,0.1161138266324997,0.04687163606286049,0.11930961906909943,3.485957622528076,2.674323320388794,9.216479301452637
1713722598560860076,0.008522115647792816,0.13315805792808533,0.12144014239311218,1.6891093254089355,4.388571739196777,11.263522148132324
1713722598569860076,-0.11930961906909943,0.148071750998497,0.1203748807311058,-0.7254431247711182,3.5841197967529297,10.65898609161377
1713722598579860076,-0.11078750342130661,0.0511326938867569,0.14061491191387177,-4.829104900360107,-1.5191209316253662,9.736021041870117
1713722598588860076,-0.058589544147253036,-0.06817692518234253,0.22583605349063873,-5.74249267578125,-5.838260650634766,7.7847466468811035
1713722598598860076,0.023435818031430244,-0.09480853378772736,0.22477079927921295,-1.0654197931289673,-2.6396074295043945,8.468291282653809
1713722598607860076,0.06178533658385277,-0.0649811327457428,0.19600865244865417,2.01232647895813,1.6807295083999634,10.244789123535156
1713722598617860076,-0.02876213937997818,0.008522115647792816,0.17363810539245605,1.9907786846160889,2.9508535861968994,11.077971458435059
1713722598626860076,-0.13635385036468506,0.03515372797846794,0.1906823366880417,0.1867477297782898,1.7764976024627686,13.023260116577148
1713722598636860076,-0.04687163606286049,-0.044741105288267136,0.1438107043504715,-3.4560301303863525,-4.776432514190674,10.771512985229492
1713722598645860076,-0.009587380103766918,-0.09693906456232071,0.2972087860107422,-2.4624364376068115,-7.46152925491333,7.99184513092041
1713722598654860076,0.15978966653347015,-0.055393751710653305,0.22050973773002625,2.0685901641845703,-2.5091233253479004,7.999027729034424
1713722598664860076,0.15233281254768372,0.037284255027770996,0.24181503057479858,2.7461493015289307,1.6519991159439087,9.339780807495117
1713722598674860076,0.092678003013134,0.1022653877735138,0.20133498311042786,1.181538462638855,4.072536945343018,10.014945983886719
1713722598684860076,-0.06924218684434891,0.1161138266324997,0.25672873854637146,-1.2054805755615234,4.733336448669434,10.27591323852539
1713722598693860076,-0.17257283627986908,0.03941478580236435,0.23009711503982544,-4.060565948486328,2.146401882171631,11.705251693725586
1713722598702860076,-0.11930961906909943,-0.09800432622432709,0.30466562509536743,-5.445611476898193,-3.6966474056243896,9.374496459960938
1713722598712860076,-0.092678003013134,-0.14487595856189728,0.3536677956581116,-1.8997989892959595,-4.807557106018066,8.062474250793457
1713722598721860076,0.011717909015715122,-0.09906959533691406,0.3025350868701935,2.495955228805542,-1.2641384601593018,9.853337287902832
1713722598731860076,-0.019174760207533836,-0.006391586735844612,0.3025350868701935,3.331531524658203,0.1951274424791336,11.378443717956543
1713722598740860076,0.003195793367922306,0.047936901450157166,0.25353294610977173,1.259350061416626,-1.3658920526504517,11.91594123840332
1713722598750860076,0.05432848632335663,0.02556634694337845,0.2833603322505951,-2.1380221843719482,-4.613626480102539,9.659406661987305
1713722598759860076,0.08202536404132843,-0.003195793367922306,0.33555829524993896,-1.4197615385055542,-3.1244332790374756,8.870516777038574
1713722598768860076,0.14913702011108398,0.007456851191818714,0.2972087860107422,0.6428431272506714,0.7146691679954529,8.913612365722656
1713722598778860076,0.08309062570333481,0.03302319720387459,0.3057308793067932,-0.015562310814857483,2.5689783096313477,9.187748908996582
1713722598787860076,-0.01065264455974102,0.01810949482023716,0.30360037088394165,-0.910993754863739,3.4787750244140625,10.278307914733887
1713722598797860076,-0.10013485699892044,-0.017044231295585632,0.3153182864189148,-1.0965443849563599,2.4660277366638184,9.740809440612793
1713722598806860076,-0.12676647305488586,-0.03834952041506767,0.31744879484176636,-0.9050082564353943,0.13527239859104156,8.831012725830078
1713722598816860076,-0.08522115647792816,-0.055393751710653305,0.31318774819374084,-0.9864110946655273,-2.1104886531829834,8.60236644744873
1713722598825860076,-0.06924218684434891,-0.05326322093605995,0.33129724860191345,-0.28969839215278625,-1.6101006269454956,10.032901763916016
1713722598835860076,-0.044741105288267136,-0.052197955548763275,0.29401299357414246,0.08858545869588852,-0.8068459630012512,12.448651313781738
1713722598844860076,-0.03195793181657791,-0.09161274135112762,0.3014698326587677,-0.7960720658302307,-3.3063924312591553,12.480973243713379
1713722598854860076,0.001065264455974102,-0.11185276508331299,0.3153182864189148,0.9373299479484558,-4.898536682128906,10.377667427062988
1713722598863860076,0.08522115647792816,-0.04048004746437073,0.2929477095603943,4.435258388519287,-3.5494039058685303,8.681375503540039
1713722598873860076,0.16405072808265686,0.09800432622432709,0.24181503057479858,4.534617900848389,-1.6041151285171509,8.38569164276123
1713722598883860076,0.19600865244865417,0.18002969026565552,0.2173139452934265,1.0809820890426636,0.772130012512207,8.374917030334473
1713722598892860076,0.10972223430871964,0.13528858125209808,0.22583605349063873,-2.5462334156036377,3.6164417266845703,9.710882186889648
1713722598901860076,-0.017044231295585632,0.020240023732185364,0.250337153673172,-4.003105163574219,4.72495698928833,10.63504409790039
1713722598911860076,-0.1438107043504715,-0.092678003013134,0.24181503057479858,-3.026270866394043,3.2082302570343018,9.738415718078613
1713722598920860076,-0.1949433982372284,-0.15020228922367096,0.2684466242790222,-0.7996633648872375,0.477643221616745,9.321824073791504
1713722598929860076,-0.13741911947727203,-0.14700649678707123,0.23329290747642517,0.9445125460624695,-2.585737705230713,8.989029884338379
1713722598939860076,-0.08415588736534119,-0.10759171098470688,0.22050973773002625,1.8782511949539185,-3.861847162246704,9.923965454101562
1713722598948860076,-0.02556634694337845,-0.05965480953454971,0.19707392156124115,2.8790276050567627,-2.9688100814819336,11.534066200256348
1713722598958860076,0.022370552644133568,-0.013848437927663326,0.15872439742088318,3.1447839736938477,-2.829946279525757,11.469423294067383
1713722598967860076,0.06711165606975555,0.03302319720387459,0.14487595856189728,2.5246856212615967,-3.139995574951172,10.219649314880371
1713722598975424081,0.10759171098470688,0.08309062570333481,0.13102751970291138,1.9393033981323242,-1.8830395936965942,9.215282440185547
1713722598984424081,0.13209278881549835,0.1065264418721199,0.10546118021011353,0.40462008118629456,0.10055647045373917,8.9064302444458
1713722598994424081,0.092678003013134,0.07030745595693588,0.10546118021011353,-1.7800889015197754,1.7609353065490723,9.384073257446289
1713722599003424081,0.015978965908288956,-0.013848437927663326,0.11078750342130661,-2.7234044075012207,2.677914619445801,10.002974510192871
1713722599013424081,-0.06178533658385277,-0.09587380290031433,0.11504855751991272,-1.843535304069519,2.1272482872009277,9.685742378234863
1713722599022424081,-0.1022653877735138,-0.12889699637889862,0.11504855751991272,0.4357447028160095,0.5805938839912415,8.971073150634766
1713722599032424081,-0.10120011866092682,-0.08948221057653427,0.1022653877735138,2.7976245880126953,-0.7086836695671082,8.859743118286133
1713722599041424081,-0.07776430249214172,-0.002130528911948204,0.07243797928094864,3.7409400939941406,-1.1025298833847046,9.585186004638672
1713722599051424081,-0.03195793181657791,0.0511326938867569,0.03302319720387459,1.6519991159439087,-2.140416383743286,11.39400577545166
1713722599060424081,0.023435818031430244,0.01810949482023716,0.02556634694337845,-1.9812018871307373,-4.514267444610596,12.18648624420166
1713722599069424081,0.04687163606286049,-0.03834952041506767,0.08309062570333481,-1.5693992376327515,-4.0294413566589355,11.184513092041016
1713722599079424081,0.11930961906909943,-0.049002163112163544,0.047936901450157166,1.6340426206588745,-1.4915876388549805,9.170989036560059
1713722599088424081,0.12783172726631165,0.00532632227987051,0.014913702383637428,2.7437551021575928,0.0,7.99184513092041
1713722599098424081,0.1203748807311058,0.06817692518234253,-0.002130528911948204,1.789665699005127,1.7597382068634033,8.256404876708984
1713722599108424081,0.03515372797846794,0.08415588736534119,-0.013848437927663326,-0.15921440720558167,3.6367924213409424,9.182960510253906
1713722599117424081,-0.09054747968912125,0.04261057823896408,-0.003195793367922306,-1.787271499633789,4.179079055786133,10.755950927734375
1713722599126424081,-0.17789916694164276,-0.03302319720387459,0.01065264455974102,-2.8862102031707764,1.6915035247802734,11.815384864807129
1713722599136424081,-0.11398329585790634,-0.1395496428012848,0.009587380103766918,-3.9001545906066895,-4.24970817565918,9.891644477844238
1713722599146424081,-0.07456851005554199,-0.1757686287164688,0.092678003013134,-0.35913026332855225,-5.633556365966797,8.51258373260498
1713722599155424081,0.08309062570333481,-0.10333064943552017,0.014913702383637428,4.836287498474121,-2.1033060550689697,8.65863037109375
1713722599164424081,0.07456851005554199,0.041545312851667404,0.02130528911948204,5.342660903930664,0.3423708379268646,9.731232643127441
1713722599174424081,0.029827404767274857,0.15126754343509674,-0.04367584362626076,3.3267431259155273,2.250549554824829,11.561599731445312
1713722599183424081,-0.05326322093605995,0.1672465205192566,-0.013848437927663326,-1.1755529642105103,1.3874398469924927,12.391190528869629
1713722599193424081,-0.001065264455974102,0.020240023732185364,-0.037284255027770996,-5.650315761566162,-4.332307815551758,10.951078414916992
1713722599202424081,0.019174760207533836,-0.0884169489145279,0.08735168725252151,-4.211400508880615,-5.890933036804199,8.24084186553955
1713722599212424081,0.1757686287164688,-0.11717908829450607,0.020240023732185364,0.6536170244216919,-1.3000514507293701,7.413645267486572
1713722599221424081,0.13741911947727203,-0.05432848632335663,0.015978965908288956,2.9053637981414795,2.278082847595215,8.698134422302246
1713722599231424081,0.07456851005554199,0.013848437927663326,-0.047936901450157166,2.2038626670837402,4.478353977203369,9.736021041870117
1713722599240424081,-0.09587380290031433,0.044741105288267136,0.008522115647792816,0.8212111592292786,4.8901567459106445,10.595539093017578
1713722599249424081,-0.22477079927921295,0.04687163606286049,-0.02130528911948204,0.365115761756897,3.1866824626922607,11.240777015686035
1713722599260424081,-0.16831177473068237,-0.008522115647792816,-0.017044231295585632,-2.8419172763824463,-3.514688014984131,9.763554573059082
1713722599268424081,-0.0649811327457428,-0.10120011866092682,0.02876213937997818,-4.125209331512451,-8.884881973266602,7.876923561096191
1713722599278424081,0.0884169489145279,-0.09800432622432709,0.08202536404132843,1.2306196689605713,-4.695029258728027,9.119514465332031
1713722599287424081,0.16298545897006989,-0.020240023732185364,-0.009587380103766918,4.2963948249816895,1.158793568611145,10.81939697265625
1713722599297424081,0.08096009492874146,0.07776430249214172,-0.012783173471689224,3.269282341003418,3.428496837615967,10.814608573913574
1713722599306424081,-0.07563377171754837,0.1257012039422989,-0.013848437927663326,1.161187767982483,3.8139631748199463,11.775880813598633
1713722599316424081,-0.12144014239311218,0.07030745595693588,-0.05965480953454971,-2.9293057918548584,-0.15442600846290588,11.335348129272461
1713722599325424081,-0.037284255027770996,-0.05965480953454971,0.023435818031430244,-5.184643745422363,-6.22971248626709,8.191761016845703
1713722599335424081,0.03302319720387459,-0.10333064943552017,0.052197955548763275,-1.0546457767486572,-4.42089319229126,7.884106159210205
1713722599344424081,0.15233281254768372,-0.06817692518234253,0.003195793367922306,3.003525972366333,0.7422025203704834,9.095572471618652
1713722599354424081,0.06391586363315582,0.02130528911948204,-0.008522115647792816,3.1483752727508545,2.9975404739379883,9.75397777557373
1713722599363424081,-0.05752427875995636,0.08522115647792816,-0.00532632227987051,2.0877437591552734,4.157531261444092,11.897985458374023
1713722599373424081,-0.14913702011108398,0.09374327212572098,-0.03302319720387459,-0.569819986820221,1.5753847360610962,11.622652053833008
1713722599382424081,-0.05006742849946022,-0.009587380103766918,-0.02556634694337845,-4.581305027008057,-5.430049419403076,9.095572471618652
1713722599392424081,-0.009587380103766918,-0.09374327212572098,0.08202536404132843,-3.333925724029541,-6.560112476348877,7.870937824249268
1713722599401424081,0.16618125140666962,-0.10120011866092682,0.012783173471689224,1.6759411096572876,-0.9193734526634216,8.188169479370117
1713722599411424081,0.092678003013134,-0.015978965908288956,0.015978965908288956,3.286041736602783,2.8359317779541016,10.075997352600098
1713722599420424081,-0.004261057823896408,0.0649811327457428,-0.030892668291926384,2.6228480339050293,4.642356872558594,11.920729637145996
1713722599429424081,-0.16298545897006989,0.09906959533691406,-0.015978965908288956,0.6955155730247498,3.2980127334594727,11.331756591796875
1713722599439424081,-0.10439591109752655,-0.006391586735844612,-0.05965480953454971,-4.223371505737305,-3.8989574909210205,9.66299819946289
1713722599449424081,-0.04261057823896408,-0.11504855751991272,0.07563377171754837,-4.458003520965576,-8.398859024047852,7.861361026763916
1713722599458424081,0.13528858125209808,-0.11504855751991272,0.03941478580236435,1.7920598983764648,-3.4320881366729736,8.667010307312012
1713722599467424081,0.1757686287164688,-0.029827404767274857,-0.003195793367922306,3.998316764831543,1.258152961730957,9.637858390808105
1713722599477424081,0.09587380290031433,0.058589544147253036,-0.01810949482023716,2.8778305053710938,3.5913023948669434,10.375272750854492
1713722599486424081,-0.05752427875995636,0.10972223430871964,-0.002130528911948204,1.4760253429412842,4.641160011291504,11.682506561279297
1713722599496424081,-0.185356006026268,0.10865697264671326,-0.024501081556081772,-0.17717091739177704,2.6228480339050293,11.559206008911133
1713722599505424081,-0.09587380290031433,0.01065264455974102,-0.030892668291926384,-4.071340084075928,-4.223371505737305,8.497021675109863
1713722599515424081,-0.044741105288267136,-0.07030745595693588,0.06924218684434891,-3.8295254707336426,-7.088034152984619,7.465120792388916
1713722599524424081,0.12889699637889862,-0.06604639440774918,0.029827404767274857,1.403002142906189,-2.073378562927246,8.543708801269531
1713722599534424081,0.09161274135112762,0.004261057823896408,0.014913702383637428,3.118447780609131,2.40736985206604,10.65898609161377
1713722599543424081,0.006391586735844612,0.07563377171754837,-0.027696875855326653,2.359485626220703,4.156333923339844,12.105083465576172
1713722599553424081,-0.15446333587169647,0.09800432622432709,0.0,0.3687070608139038,2.7317841053009033,12.245144844055176
1713722599562424081,-0.06817692518234253,-0.01065264455974102,-0.06924218684434891,-4.436455726623535,-4.695029258728027,10.17296314239502
1713722599571424081,-0.014913702383637428,-0.11185276508331299,0.10013485699892044,-4.400542736053467,-8.695740699768066,7.744045257568359
1713722599582424081,0.17470337450504303,-0.10972223430871964,0.020240023732185364,1.9608511924743652,-3.294421434402466,8.933963775634766
1713722599591424081,0.21092236042022705,-0.015978965908288956,0.0,3.976768970489502,1.3060369491577148,9.193734169006348
1713722599600424081,0.14274543523788452,0.06391586363315582,-0.03302319720387459,2.578555107116699,3.7684733867645264,9.642646789550781
1713722599610424081,-0.01810949482023716,0.10333064943552017,-0.001065264455974102,1.0055646896362305,5.2564697265625,10.743980407714844
1713722599619424081,-0.16618125140666962,0.09693906456232071,-0.024501081556081772,-0.16759411990642548,4.018667697906494,10.702081680297852
1713722599628424081,-0.20240023732185364,0.05645901337265968,-0.001065264455974102,-2.1344308853149414,-0.395043283700943,10.591948509216309
1713722599639424081,-0.0788295716047287,-0.052197955548763275,-0.014913702383637428,-4.431667327880859,-6.264428615570068,8.172607421875
1713722599647424081,-0.011717909015715122,-0.08309062570333481,0.0884169489145279,-1.3419500589370728,-4.994304656982422,8.29590892791748
1713722599657424081,0.10013485699892044,-0.05645901337265968,-0.019174760207533836,2.6108767986297607,0.4118026793003082,10.530896186828613
1713722599666424081,0.013848437927663326,0.023435818031430244,0.01065264455974102,2.675520420074463,2.2661118507385254,11.419144630432129
1713722599676424081,-0.09161274135112762,0.05645901337265968,-0.037284255027770996,1.2976572513580322,1.5382745265960693,13.36084270477295
1713722599685424081,0.00532632227987051,0.004261057823896408,-0.05965480953454971,-2.8610708713531494,-4.837484359741211,10.590750694274902
1713722599695424081,0.04048004746437073,-0.06391586363315582,0.0511326938867569,-2.9987375736236572,-7.449558258056641,7.794323444366455
1713722599704424081,0.222640261054039,-0.06604639440774918,0.006391586735844612,1.578976035118103,-2.387019157409668,7.727285861968994
1713722599714424081,0.20240023732185364,0.008522115647792816,-0.001065264455974102,3.005920171737671,2.074575662612915,8.870516777038574
1713722599723424081,0.14061491191387177,0.06924218684434891,-0.058589544147253036,1.8842366933822632,4.820724964141846,9.653421401977539
1713722599733424081,-0.047936901450157166,0.08309062570333481,0.002130528911948204,-0.010773907415568829,5.805939197540283,10.54406452178955
1713722599742424081,-0.19707392156124115,0.05645901337265968,-0.04687163606286049,-1.0666168928146362,4.185064315795898,11.039664268493652
1713722599752424081,-0.19281286001205444,-0.017044231295585632,0.002130528911948204,-3.4117374420166016,-1.523909330368042,9.321824073791504
1713722599761424081,-0.1022653877735138,-0.13102751970291138,0.009587380103766918,-4.195838451385498,-7.015010833740234,8.216899871826172
1713722599771424081,0.004261057823896408,-0.12357067316770554,0.07776430249214172,0.7613561153411865,-4.503493309020996,9.461884498596191
1713722599780424081,0.09161274135112762,-0.04687163606286049,-0.02876213937997818,4.393360137939453,0.29209259152412415,10.842142105102539
1713722599789424081,0.03621898964047432,0.06178533658385277,-0.012783173471689224,3.7888240814208984,1.5358803272247314,11.159374237060547
1713722599799424081,-0.047936901450157166,0.11398329585790634,-0.04261057823896408,1.1492167711257935,1.0079588890075684,12.448651313781738
1713722599809424081,0.03941478580236435,0.044741105288267136,-0.07456851005554199,-3.751713991165161,-4.098873138427734,10.245985984802246
1713722599818424081,0.0511326938867569,-0.04048004746437073,0.06711165606975555,-3.6044704914093018,-5.250484466552734,8.148665428161621
1713722599827424081,0.19387812912464142,-0.07350324839353561,-0.020240023732185364,0.669179379940033,-0.590170681476593,7.923610210418701
1713722599837424081,0.12250541150569916,-0.02876213937997818,0.023435818031430244,1.8543092012405396,2.7688941955566406,9.097966194152832
1713722599846424081,0.03515372797846794,0.014913702383637428,-0.05006742849946022,1.8279730081558228,4.763264179229736,10.765527725219727
1713722599856424081,-0.11717908829450607,0.047936901450157166,0.0,1.1264718770980835,4.201823711395264,10.521319389343262
1713722599865424081,-0.1992044448852539,0.03621898964047432,-0.05326322093605995,-0.9385270476341248,0.5638344883918762,11.60828685760498
1713722599875424081,-0.058589544147253036,-0.05326322093605995,-0.026631610468029976,-4.062960147857666,-6.382941722869873,9.008183479309082
1713722599884424081,-0.01065264455974102,-0.1022653877735138,0.07669904083013535,-1.6759411096572876,-6.422445774078369,8.285135269165039
1713722599894424081,0.16618125140666962,-0.06924218684434891,-0.020240023732185364,3.089717149734497,-0.7637503147125244,9.044096946716309
1713722599903424081,0.07989483326673508,0.03302319720387459,0.008522115647792816,3.5170822143554688,2.315192937850952,10.676941871643066
1713722599913424081,-0.002130528911948204,0.1022653877735138,-0.05645901337265968,2.273294448852539,3.4608185291290283,12.518083572387695
1713722599922424081,-0.0884169489145279,0.10333064943552017,-0.027696875855326653,-1.3455413579940796,0.6859387755393982,11.651382446289062
1713722599931424081,-0.004261057823896408,-0.01810949482023716,-0.05006742849946022,-4.909310340881348,-5.202600002288818,9.051279067993164
1713722599941424081,0.03515372797846794,-0.08202536404132843,0.08096009492874146,-2.5091233253479004,-5.108029365539551,7.800309181213379
1713722599950424081,0.18748654425144196,-0.08735168725252151,-0.020240023732185364,1.8028337955474854,-0.026336219161748886,8.030152320861816
1713722599961424081,0.10439591109752655,-0.013848437927663326,0.009587380103766918,2.716221809387207,3.022679567337036,9.078812599182129
1713722599970424081,-0.003195793367922306,0.04687163606286049,-0.030892668291926384,2.2397756576538086,4.835090160369873,11.774683952331543
1713722599979424081,-0.14061491191387177,0.08415588736534119,-0.022370552644133568,1.035492181777954,3.645172119140625,10.923544883728027
1713722599989424081,-0.14061491191387177,0.03302319720387459,-0.041545312851667404,-2.9065608978271484,-2.056619167327881,10.121487617492676
1713722599998424081,-0.03941478580236435,-0.08735168725252151,0.01810949482023716,-4.945223331451416,-7.660248279571533,8.14028549194336
1713722600007424081,0.07456851005554199,-0.11078750342130661,0.07563377171754837,-0.21547815203666687,-4.504690647125244,8.845377922058105
1713722600017424081,0.16937704384326935,-0.055393751710653305,-0.015978965908288956,3.73016619682312,1.1312602758407593,9.871293067932129
1713722600026424081,0.08202536404132843,0.04261057823896408,-0.009587380103766918,3.491943120956421,3.4787750244140625,10.2747163772583
1713722600036424081,-0.06604639440774918,0.10972223430871964,-0.03195793181657791,1.7812860012054443,4.321534156799316,12.182894706726074
1713722600046424081,-0.14168016612529755,0.08415588736534119,-0.05326322093605995,-2.139219284057617,0.7242460250854492,12.57913589477539
1713722600055424081,-0.03621898964047432,-0.05326322093605995,-0.014913702383637428,-5.615600109100342,-6.481103897094727,8.514978408813477
1713722600064424081,0.01810949482023716,-0.11824434995651245,0.07243797928094864,-2.1344308853149414,-6.034585475921631,7.240066051483154
1713722600073424081,0.19707392156124115,-0.1022653877735138,-0.015978965908288956,2.871845006942749,-0.24660277366638184,8.288725852966309
1713722600083424081,0.11291802674531937,-0.01065264455974102,-0.004261057823896408,3.404554843902588,2.960430383682251,9.39484691619873
1713722600093424081,0.01810949482023716,0.05752427875995636,-0.04048004746437073,2.3702597618103027,4.620809078216553,11.63342571258545
1713722600103424081,-0.12463594228029251,0.09374327212572098,-0.017044231295585632,0.9205705523490906,3.508702516555786,10.639832496643066
1713722600112424081,-0.15659387409687042,0.06924218684434891,-0.02556634694337845,-2.073378562927246,-0.5961562395095825,11.043254852294922
1713722600121424081,-0.04367584362626076,-0.04580637067556381,-0.014913702383637428,-4.8937482833862305,-6.238092422485352,8.20492935180664
1713722600130424081,0.019174760207533836,-0.09480853378772736,0.08309062570333481,-1.6879122257232666,-4.345476150512695,7.908048152923584
1713722600140424081,0.12676647305488586,-0.0788295716047287,-0.012783173471689224,2.606088399887085,0.8918401002883911,9.75278091430664
1713722600149424081,0.029827404767274857,0.008522115647792816,0.011717909015715122,2.9891607761383057,2.9544448852539062,10.844536781311035
1713722600160424081,-0.08202536404132843,0.07563377171754837,-0.01810949482023716,1.9847931861877441,3.3028011322021484,12.534842491149902
1713722600168424081,-0.092678003013134,0.055393751710653305,-0.04048004746437073,-1.867477297782898,-1.3994108438491821,11.083956718444824
1713722600178424081,0.0,-0.06072007119655609,0.013848437927663326,-5.13197135925293,-7.578845500946045,8.367734909057617
1713722600188424081,0.09800432622432709,-0.10865697264671326,0.07669904083013535,-1.2497732639312744,-4.932055473327637,8.17500114440918
1713722600197424081,0.22050973773002625,-0.07563377171754837,-0.00532632227987051,2.956839084625244,1.1982979774475098,8.757989883422852
1713722600206424081,0.13315805792808533,0.0,-0.009587380103766918,2.650381326675415,3.7696704864501953,9.526528358459473
1713722600216424081,-0.015978965908288956,0.0511326938867569,0.002130528911948204,1.6101006269454956,5.420472621917725,11.716025352478027
1713722600225424081,-0.16405072808265686,0.07030745595693588,-0.006391586735844612,0.8104372620582581,4.0330328941345215,11.05762004852295
1713722600235424081,-0.21092236042022705,0.05752427875995636,0.01810949482023716,-1.1348515748977661,-0.568622887134552,10.745177268981934
1713722600245424081,-0.06072007119655609,-0.041545312851667404,-0.029827404767274857,-4.181473255157471,-6.8797383308410645,7.8960771560668945
1713722600253424081,0.004261057823896408,-0.0788295716047287,0.11185276508331299,-1.744175910949707,-5.586869716644287,7.929595947265625
1713722600263424081,0.14700649678707123,-0.06924218684434891,-0.01810949482023716,2.5079262256622314,0.4129997789859772,9.853337287902832
1713722600272424081,0.044741105288267136,0.011717909015715122,0.03515372797846794,2.806004285812378,2.9712042808532715,11.12226390838623
1713722600282424081,-0.0649811327457428,0.06817692518234253,-0.030892668291926384,1.9728221893310547,3.2381577491760254,12.799402236938477
1713722600291424081,-0.09054747968912125,0.06072007119655609,-0.012783173471689224,-1.1001356840133667,-0.9133879542350769,11.006145477294922
1713722600301424081,-0.002130528911948204,-0.037284255027770996,-0.008522115647792816,-4.181473255157471,-6.44399356842041,7.838616371154785
1713722600311424081,0.07989483326673508,-0.07243797928094864,0.08096009492874146,-1.4736311435699463,-4.411316394805908,7.724891662597656
1713722600320424081,0.18642127513885498,-0.052197955548763275,-0.001065264455974102,2.146401882171631,1.2102689743041992,9.340977668762207
1713722600329424081,0.09374327212572098,0.01810949482023716,0.02556634694337845,2.139219284057617,3.9456443786621094,10.010157585144043
1713722600340424081,-0.05752427875995636,0.0649811327457428,0.01810949482023716,1.182735562324524,5.066130638122559,12.012907028198242
1713722600348424081,-0.17044231295585632,0.07137271761894226,0.01065264455974102,-0.6117185354232788,2.4875755310058594,11.809399604797363
1713722600358424081,-0.08309062570333481,-0.026631610468029976,0.02130528911948204,-4.290409564971924,-4.623203277587891,8.412027359008789
1713722600367424081,-0.04048004746437073,-0.10865697264671326,0.11185276508331299,-3.6727054119110107,-6.739677906036377,6.982688903808594
1713722600377424081,0.12783172726631165,-0.10439591109752655,0.06604639440774918,1.4137760400772095,-1.601720929145813,8.75080680847168
1713722600386424081,0.0884169489145279,-0.020240023732185364,0.06178533658385277,3.3446996212005615,2.339134931564331,11.010933876037598
1713722600396424081,0.012783173471689224,0.06391586363315582,0.022370552644133568,2.5713725090026855,3.756502389907837,11.905167579650879
1713722600405424081,-0.12357067316770554,0.09161274135112762,0.04687163606286049,0.23702596127986908,2.230198860168457,11.895590782165527
1713722600415424081,-0.04261057823896408,-0.011717909015715122,0.004261057823896408,-4.32991361618042,-4.284423828125,9.695319175720215
1713722600424424081,-0.00532632227987051,-0.1065264418721199,0.148071750998497,-4.072536945343018,-7.020996570587158,7.439981460571289
1713722600434424081,0.1672465205192566,-0.11185276508331299,0.07563377171754837,1.625662922859192,-2.0626046657562256,8.343792915344238
1713722600443424081,0.1576591432094574,-0.01810949482023716,0.07669904083013535,3.640383720397949,2.096123456954956,9.646238327026367
1713722600453424081,0.07669904083013535,0.06604639440774918,0.03834952041506767,2.4361002445220947,4.46638298034668,11.167753219604492
1713722600462424081,-0.07989483326673508,0.10333064943552017,0.07350324839353561,0.6033388376235962,4.732139587402344,11.188104629516602
1713722600471424081,-0.20133498311042786,0.07243797928094864,0.05645901337265968,-1.7262194156646729,1.944091796875,11.186906814575195
1713722600481424081,-0.0884169489145279,-0.0511326938867569,0.05326322093605995,-4.765658378601074,-5.418078422546387,8.912415504455566
1713722600491424081,-0.03941478580236435,-0.12676647305488586,0.17044231295585632,-3.163937568664551,-7.252037048339844,7.759607791900635
1713722600500424081,0.1395496428012848,-0.11185276508331299,0.08309062570333481,2.2409727573394775,-1.698686122894287,9.338583946228027
1713722600510424081,0.09374327212572098,-0.01065264455974102,0.10759171098470688,4.124012470245361,1.9955670833587646,11.27070426940918
1713722600519424081,0.037284255027770996,0.07989483326673508,0.037284255027770996,3.1663317680358887,3.1040823459625244,11.614272117614746
1713722600528424081,-0.0788295716047287,0.12357067316770554,0.07563377171754837,0.8655039072036743,1.9237409830093384,10.066420555114746
1713722600538424081,-0.030892668291926384,0.041545312851667404,0.01810949482023716,-3.5242648124694824,-2.535459518432617,9.14704704284668
1713722600547424081,0.0,-0.044741105288267136,0.13635385036468506,-4.14915132522583,-4.572925090789795,8.283937454223633
1713722600557424081,0.10546118021011353,-0.08309062570333481,0.08522115647792816,-0.25737667083740234,-1.0127472877502441,8.592789649963379
1713722600566424081,0.07989483326673508,-0.05645901337265968,0.1065264418721199,1.725022315979004,2.1308395862579346,9.97184944152832
1713722600576424081,0.012783173471689224,0.001065264455974102,0.07669904083013535,2.165555477142334,3.5458126068115234,10.618284225463867
1713722600585424081,-0.10759171098470688,0.05326322093605995,0.08522115647792816,1.6496049165725708,3.159149169921875,10.699687004089355
1713722600595424081,-0.15233281254768372,0.05326322093605995,0.06604639440774918,-0.5303156971931458,0.09696516394615173,11.602301597595215
1713722600604424081,-0.041545312851667404,-0.029827404767274857,0.06711165606975555,-3.863044261932373,-5.761646270751953,9.378087997436523
1713722600614424081,-0.001065264455974102,-0.07989483326673508,0.16618125140666962,-2.185906171798706,-5.5545477867126465,8.829815864562988
1713722600623424081,0.13848437368869781,-0.07243797928094864,0.08202536404132843,2.1775264739990234,-0.5039794445037842,9.704895973205566
1713722600633424081,0.06817692518234253,0.00532632227987051,0.10759171098470688,3.028665065765381,1.8626888990402222,10.553641319274902
1713722600642424081,0.0,0.0649811327457428,0.049002163112163544,2.361879825592041,2.434903144836426,11.391611099243164
1713722600651424081,-0.05752427875995636,0.09161274135112762,0.07243797928094864,0.2669534981250763,0.7218518257141113,10.131064414978027
1713722600661424081,0.003195793367922306,0.02556634694337845,0.03515372797846794,-3.1519665718078613,-3.156754970550537,8.671798706054688
1713722600670424081,0.022370552644133568,-0.041545312851667404,0.12783172726631165,-3.0418331623077393,-3.3243489265441895,8.467094421386719
1713722600681424081,0.10439591109752655,-0.07776430249214172,0.07243797928094864,-0.06344634294509888,0.21667525172233582,9.190142631530762
1713722600689424081,0.047936901450157166,-0.058589544147253036,0.09374327212572098,1.3204022645950317,2.183511972427368,9.782708168029785
1713722600699424081,-0.023435818031430244,-0.02130528911948204,0.058589544147253036,2.0254945755004883,2.865859270095825,10.559626579284668
1713722600708424081,-0.10865697264671326,0.02130528911948204,0.052197955548763275,2.0195090770721436,1.8794482946395874,10.194510459899902
1713722600718424081,-0.11504855751991272,0.030892668291926384,0.03302319720387459,0.3172317147254944,-1.039083480834961,10.741585731506348
1713722600727424081,-0.020240023732185364,-0.022370552644133568,0.022370552644133568,-2.275688648223877,-5.082890033721924,9.709684371948242
1713722600737424081,0.020240023732185364,-0.05326322093605995,0.10013485699892044,-0.8810662031173706,-4.000710964202881,9.645041465759277
1713722600746424081,0.10546118021011353,-0.047936901450157166,0.022370552644133568,2.540247917175293,-0.25019407272338867,10.15261173248291
1713722600756424081,0.06072007119655609,0.022370552644133568,0.04261057823896408,3.1878795623779297,1.0558428764343262,9.953893661499023
1713722600765424081,0.007456851191818714,0.08309062570333481,-0.01065264455974102,2.2146365642547607,1.5071499347686768,10.475829124450684
1713722600775424081,-0.023435818031430244,0.09587380290031433,-0.003195793367922306,-0.11013327538967133,0.47884032130241394,9.946710586547852
1713722600784424081,0.008522115647792816,0.03302319720387459,-0.020240023732185364,-2.7269957065582275,-1.823184609413147,9.115922927856445
1713722600794424081,0.00532632227987051,-0.03302319720387459,0.037284255027770996,-2.450465440750122,-1.5418658256530762,9.271546363830566
1713722600803424081,0.04580637067556381,-0.07030745595693588,0.017044231295585632,-0.090979665517807,0.5650315880775452,9.518148422241211
1713722600812424081,0.004261057823896408,-0.04580637067556381,0.023435818031430244,1.4772224426269531,1.2497732639312744,9.526528358459473
1713722600823424081,-0.037284255027770996,0.00532632227987051,0.002130528911948204,2.0865466594696045,1.425747036933899,10.079588890075684
1713722600831424081,-0.07243797928094864,0.05432848632335663,-0.00532632227987051,1.6974890232086182,0.7601590156555176,9.913191795349121
1713722600841424081,-0.04580637067556381,0.05965480953454971,-0.013848437927663326,-0.568622887134552,-1.5143325328826904,10.019734382629395
1713722600851424081,0.003195793367922306,0.01065264455974102,0.0,-2.912546396255493,-3.773261785507202,10.08557415008545
1713722600860424081,0.026631610468029976,-0.029827404767274857,0.05326322093605995,-1.5825673341751099,-2.0147206783294678,10.764330863952637
1713722600870424081,0.058589544147253036,-0.04048004746437073,0.00532632227987051,0.834379255771637,0.41778817772865295,10.575188636779785
1713722600879424081,0.01810949482023716,-0.01065264455974102,0.012783173471689224,1.479616641998291,0.45489832758903503,9.836577415466309
1713722600889424081,-0.001065264455974102,0.020240023732185364,-0.006391586735844612,1.3682862520217896,0.0586579404771328,9.795876502990723
1713722600898424081,0.007456851191818714,0.04048004746437073,-0.007456851191818714,0.7649474143981934,-0.4668693244457245,9.005789756774902
1713722600907424081,0.019174760207533836,0.04580637067556381,-0.012783173471689224,-0.208295539021492,-0.39863458275794983,8.951919555664062
1713722600917424081,0.015978965908288956,0.026631610468029976,-0.007456851191818714,-1.114500880241394,0.42377370595932007,9.616311073303223
1713722600926424081,-0.008522115647792816,-0.011717909015715122,0.004261057823896408,-1.3898340463638306,1.037886381149292,9.950302124023438
1713722600936424081,-0.04048004746437073,-0.044741105288267136,0.007456851191818714,-0.8786720037460327,0.8259995579719543,9.853337287902832
1713722600945424081,-0.06285060197114944,-0.05432848632335663,0.007456851191818714,0.13766659796237946,0.1496376097202301,9.838972091674805
1713722600955424081,-0.05752427875995636,-0.03834952041506767,0.004261057823896408,1.0319008827209473,-0.8271966576576233,9.96825885772705
1713722600964424081,-0.02130528911948204,-0.006391586735844612,0.001065264455974102,1.0606313943862915,-1.9919757843017578,10.155006408691406
1713722600973424081,0.01810949482023716,0.02876213937997818,0.0,0.7661445140838623,-1.941697597503662,10.0580415725708
1713722600983424081,0.03621898964047432,0.04580637067556381,-0.002130528911948204,0.325611412525177,-0.6727706789970398,10.182539939880371
1713722600993424081,0.03941478580236435,0.030892668291926384,-0.011717909015715122,-1.1061211824417114,-0.35673603415489197,10.619481086730957
1713722601002424081,0.020240023732185364,-0.015978965908288956,0.003195793367922306,-1.8531121015548706,-0.5542576909065247,10.313023567199707
1713722601011424081,0.01065264455974102,-0.055393751710653305,0.022370552644133568,-0.5267243385314941,-0.18794482946395874,9.785101890563965
1713722601021424081,0.014913702383637428,-0.04580637067556381,0.009587380103766918,1.237802267074585,-0.15682020783424377,9.185354232788086
1713722601031424081,0.02556634694337845,0.001065264455974102,0.00532632227987051,1.985990285873413,-0.104147769510746,8.763975143432617
1713722601040424081,0.011717909015715122,0.05006742849946022,-0.008522115647792816,1.4987702369689941,0.6057330369949341,9.435548782348633
1713722601049424081,-0.013848437927663326,0.06711165606975555,-0.01065264455974102,0.1843535304069519,1.138442873954773,9.987412452697754
1713722601060424081,-0.03621898964047432,0.04261057823896408,-0.009587380103766918,-1.5071499347686768,0.6129156351089478,10.104727745056152
1713722601068424081,-0.03515372797846794,-0.022370552644133568,-0.004261057823896408,-2.7688941955566406,-0.7697358131408691,9.838972091674805
1713722601078424081,-0.04580637067556381,-0.07243797928094864,0.03195793181657791,-1.5502455234527588,-0.8367734551429749,9.77672290802002
1713722601087424081,-0.022370552644133568,-0.07456851005554199,0.009587380103766918,0.9756371974945068,-0.24899697303771973,9.836577415466309
1713722601097424081,-0.024501081556081772,-0.022370552644133568,0.015978965908288956,2.3092074394226074,-0.31364041566848755,9.804255485534668
1713722601106424081,-0.03195793181657791,0.04367584362626076,-0.003195793367922306,2.250549554824829,-0.25977087020874023,10.594342231750488
1713722601116424081,0.014913702383637428,0.05645901337265968,-0.027696875855326653,-0.3998316824436188,-1.9237409830093384,10.74996566772461
1713722601125424081,0.029827404767274857,0.002130528911948204,0.006391586735844612,-2.628833532333374,-3.3698389530181885,10.250774383544922
1713722601135424081,0.055393751710653305,-0.04687163606286049,0.029827404767274857,-0.7817068696022034,-1.4844050407409668,10.180145263671875
1713722601145424081,0.08309062570333481,-0.04048004746437073,-0.003195793367922306,1.5729905366897583,0.2992752194404602,9.435548782348633
1713722601154424081,0.07137271761894226,0.004261057823896408,-0.011717909015715122,2.070984363555908,0.8403647541999817,8.467094421386719
1713722601163424081,0.023435818031430244,0.05006742849946022,-0.027696875855326653,1.4520833492279053,1.8315643072128296,9.14704704284668
1713722601173424081,-0.026631610468029976,0.05752427875995636,-0.04261057823896408,0.19871874153614044,2.3127987384796143,9.671377182006836
1713722601182424081,-0.08415588736534119,0.03515372797846794,-0.03621898964047432,-0.8858546018600464,1.8303672075271606,9.442730903625488
1713722601191424081,-0.1161138266324997,-0.011717909015715122,-0.04580637067556381,-1.523909330368042,0.6033388376235962,9.939528465270996
1713722601201424081,-0.09693906456232071,-0.06711165606975555,-0.03302319720387459,-1.5203180313110352,-1.4676456451416016,9.96825885772705
1713722601211424081,-0.08202536404132843,-0.0788295716047287,-0.008522115647792816,0.3280056416988373,-2.1787235736846924,10.146626472473145
1713722601220424081,-0.02556634694337845,-0.03195793181657791,-0.02556634694337845,2.756923198699951,-1.5550339221954346,10.257957458496094
1713722601230424081,-0.004261057823896408,0.047936901450157166,-0.041545312851667404,2.82635498046875,-1.5765818357467651,10.558429718017578
1713722601239424081,0.05645901337265968,0.07776430249214172,-0.07350324839353561,0.09457096457481384,-2.536656618118286,10.6709566116333
1713722601248424081,0.06604639440774918,0.05006742849946022,-0.03621898964047432,-1.787271499633789,-2.097320556640625,10.038887977600098
1713722601259424081,0.08415588736534119,0.004261057823896408,-0.034088462591171265,-1.1516109704971313,0.10295066982507706,9.713275909423828
1713722601267424081,0.058589544147253036,-0.015978965908288956,-0.04261057823896408,-0.5051765441894531,1.2761094570159912,9.157821655273438
1713722601277424081,0.023435818031430244,-0.024501081556081772,-0.047936901450157166,-0.10055647045373917,1.7968482971191406,8.796297073364258
1713722601286424081,-0.03621898964047432,-0.01810949482023716,-0.04367584362626076,0.3148375153541565,2.1487960815429688,9.124302864074707
1713722601296424081,-0.08948221057653427,-0.00532632227987051,-0.05645901337265968,0.48961424827575684,1.8040308952331543,9.580397605895996
1713722601305424081,-0.11930961906909943,0.003195793367922306,-0.04580637067556381,0.43335050344467163,0.7912836670875549,9.445125579833984
1713722601315424081,-0.10972223430871964,-0.003195793367922306,-0.05752427875995636,-0.29807811975479126,-0.833182156085968,9.770736694335938
1713722601324424081,-0.07137271761894226,-0.03195793181657791,-0.03941478580236435,-1.0989385843276978,-2.6611552238464355,10.413579940795898
1713722601334424081,-0.04687163606286049,-0.03621898964047432,-0.014913702383637428,0.3519476354122162,-2.1775264739990234,10.984597206115723
1713722601343424081,-0.003195793367922306,0.00532632227987051,-0.03621898964047432,2.1499931812286377,-0.9660603404045105,10.765527725219727
1713722601353424081,0.024501081556081772,0.049002163112163544,-0.05752427875995636,1.0690110921859741,-1.6484078168869019,9.768342971801758
1713722601362424081,0.041545312851667404,0.047936901450157166,-0.05432848632335663,-0.689530074596405,-1.6771382093429565,9.317035675048828
1713722601371424081,0.04687163606286049,0.019174760207533836,-0.04580637067556381,-1.0558428764343262,0.02513911761343479,9.716867446899414
1713722601381424081,0.020240023732185364,-0.012783173471689224,-0.058589544147253036,-0.8571242094039917,1.3503297567367554,10.131064414978027
1713722601391424081,-0.019174760207533836,-0.034088462591171265,-0.049002163112163544,-0.4537012279033661,1.3215993642807007,9.5408935546875
1713722601400424081,-0.06178533658385277,-0.03515372797846794,-0.049002163112163544,0.208295539021492,0.7469909191131592,9.282320022583008
1713722601409424081,-0.07243797928094864,-0.022370552644133568,-0.055393751710653305,0.7781155109405518,0.08619125932455063,9.478644371032715
1713722601419424081,-0.06285060197114944,0.0,-0.05326322093605995,0.9504980444908142,-0.42018237709999084,9.255983352661133
1713722601428424081,-0.052197955548763275,0.014913702383637428,-0.06178533658385277,0.5566518902778625,-0.529118537902832,9.54209041595459
1713722601439424081,-0.04261057823896408,0.008522115647792816,-0.06391586363315582,-0.28730419278144836,-0.5937620401382446,10.211270332336426
1713722601447424081,-0.04367584362626076,-0.013848437927663326,-0.05645901337265968,-0.851138710975647,-0.8367734551429749,10.866084098815918
1713722601457424081,-0.03834952041506767,-0.03195793181657791,-0.04048004746437073,-0.33758243918418884,-1.1851298809051514,10.848127365112305
1713722601467424081,-0.017044231295585632,-0.020240023732185364,-0.04580637067556381,0.5961562395095825,-1.6184803247451782,10.08557415008545
1713722601477109939,0.011717909015715122,0.009587380103766918,-0.052197955548763275,0.8966284990310669,-1.5131354331970215,9.421183586120605
1713722601486109939,0.030892668291926384,0.026631610468029976,-0.05965480953454971,0.5985504388809204,-0.5015852451324463,9.345766067504883
1713722601496109939,0.015978965908288956,0.029827404767274857,-0.06391586363315582,-0.04189852997660637,0.6739677786827087,9.944316864013672
1713722601505109939,-0.02556634694337845,0.013848437927663326,-0.06604639440774918,-0.7410054206848145,1.113303780555725,10.352527618408203
1713722601514109939,-0.04580637067556381,-0.024501081556081772,-0.06072007119655609,-1.2521674633026123,-0.002394201699644327,10.035296440124512
1713722601525109939,-0.049002163112163544,-0.05006742849946022,-0.037284255027770996,-0.6224924325942993,-1.2641384601593018,9.332597732543945
1713722601533109939,-0.017044231295585632,-0.03834952041506767,-0.04580637067556381,0.8427590131759644,-1.1336544752120972,8.979453086853027
1713722601543109939,0.004261057823896408,-0.008522115647792816,-0.05432848632335663,1.43532395362854,-0.34835633635520935,9.181763648986816
1713722601553109939,0.001065264455974102,0.019174760207533836,-0.06604639440774918,1.1312602758407593,0.6428431272506714,9.558850288391113
1713722601562109939,-0.04687163606286049,0.034088462591171265,-0.06817692518234253,0.416591078042984,1.5263035297393799,10.45787239074707
1713722601572109939,-0.09693906456232071,0.019174760207533836,-0.07669904083013535,-0.7709329128265381,1.0462660789489746,11.717223167419434
1713722601581109939,-0.06391586363315582,-0.03941478580236435,-0.07350324839353561,-2.4875755310058594,-2.5234885215759277,10.686518669128418
1713722601590109939,-0.04580637067556381,-0.07989483326673508,-0.020240023732185364,-1.5322890281677246,-4.213794708251953,9.05606746673584
1713722601600109939,0.049002163112163544,-0.06391586363315582,-0.04261057823896408,1.6891093254089355,-1.9057844877243042,8.822632789611816
1713722601609109939,0.055393751710653305,-0.004261057823896408,-0.06072007119655609,3.066972255706787,0.2298433631658554,9.50857162475586
1713722601619109939,0.030892668291926384,0.06924218684434891,-0.08096009492874146,2.5019407272338867,1.701080322265625,10.311826705932617
1713722601628109939,-0.05006742849946022,0.10759171098470688,-0.08628641813993454,0.5805938839912415,2.1080944538116455,10.468647003173828
1713722601638109939,-0.06285060197114944,0.04580637067556381,-0.10333064943552017,-2.9233202934265137,-0.6236895322799683,10.436325073242188
1713722601647109939,-0.041545312851667404,-0.05752427875995636,-0.030892668291926384,-4.23893404006958,-3.6116530895233154,9.050082206726074
1713722601657109939,0.01810949482023716,-0.1065264418721199,-0.026631610468029976,-0.9684545993804932,-2.0183119773864746,8.681375503540039
1713722601667109939,0.052197955548763275,-0.09161274135112762,-0.05432848632335663,2.231395959854126,0.7829039692878723,9.168595314025879
1713722601676109939,0.01065264455974102,-0.019174760207533836,-0.07030745595693588,3.3267431259155273,2.211045265197754,9.659406661987305
1713722601685109939,-0.092678003013134,0.0649811327457428,-0.08415588736534119,2.9281086921691895,2.87064790725708,11.377245903015137
1713722601695109939,-0.15126754343509674,0.09587380290031433,-0.09906959533691406,0.26336216926574707,0.6739677786827087,12.743138313293457
1713722601704109939,-0.037284255027770996,0.009587380103766918,-0.10120011866092682,-4.290409564971924,-5.978321552276611,10.135852813720703
1713722601713109939,-0.002130528911948204,-0.06711165606975555,0.015978965908288956,-3.3279402256011963,-6.596025466918945,8.315062522888184
1713722601724109939,0.17257283627986908,-0.09054747968912125,-0.06391586363315582,1.6196774244308472,-0.8882488012313843,8.030152320861816
1713722601732109939,0.092678003013134,-0.023435818031430244,-0.047936901450157166,3.271676540374756,2.6635494232177734,9.44991397857666
1713722601742109939,0.02130528911948204,0.047936901450157166,-0.12783172726631165,2.673126220703125,4.2544965744018555,11.05522632598877
1713722601751109939,-0.12463594228029251,0.09161274135112762,-0.06924218684434891,1.0869675874710083,3.645172119140625,10.311826705932617
1713722601761109939,-0.1992044448852539,0.08096009492874146,-0.10972223430871964,-0.6967126727104187,1.1875240802764893,10.63743782043457
1713722601770109939,-0.09800432622432709,-0.006391586735844612,-0.09693906456232071,-3.837905168533325,-4.502296447753906,8.259995460510254
1713722601780109939,-0.05965480953454971,-0.07350324839353561,-0.015978965908288956,-2.980781078338623,-5.130774021148682,8.060079574584961
1713722601789109939,0.07350324839353561,-0.09374327212572098,-0.07456851005554199,1.3694833517074585,-0.4405331015586853,9.32421875
1713722601799109939,-0.003195793367922306,-0.026631610468029976,-0.05752427875995636,2.9891607761383057,2.4456770420074463,11.071985244750977
1713722601808109939,-0.08415588736534119,0.05006742849946022,-0.11291802674531937,2.98437237739563,3.110067844390869,12.618639945983887
1713722601818109939,-0.15552860498428345,0.08948221057653427,-0.07989483326673508,0.31124621629714966,-0.295683890581131,12.495338439941406
1713722601827109939,-0.015978965908288956,0.002130528911948204,-0.12783172726631165,-4.656722068786621,-7.5453267097473145,9.356539726257324
1713722601837109939,0.03941478580236435,-0.06178533658385277,0.03834952041506767,-3.202244758605957,-7.163451194763184,7.930792808532715
1713722601847109939,0.23329290747642517,-0.08415588736534119,-0.08628641813993454,1.7633295059204102,-0.325611412525177,8.22887134552002
1713722601856109939,0.14168016612529755,-0.02556634694337845,-0.047936901450157166,2.582146406173706,3.3961751461029053,8.991424560546875
1713722601865109939,0.02876213937997818,0.030892668291926384,-0.10013485699892044,1.985990285873413,5.352237701416016,11.384428977966309
1713722601875109939,-0.1342233121395111,0.06604639440774918,-0.06391586363315582,1.0510544776916504,4.639962673187256,10.402806282043457
1713722601884109939,-0.25353294610977173,0.07669904083013535,-0.06391586363315582,0.6823474764823914,2.232593059539795,9.50737476348877
1713722601894109939,-0.18429075181484222,0.047936901450157166,-0.09906959533691406,-2.099714756011963,-2.8790276050567627,8.287528991699219
1713722601903109939,-0.08096009492874146,-0.04048004746437073,-0.05326322093605995,-4.405331134796143,-6.75883150100708,7.697358131408691
1713722601912109939,0.01065264455974102,-0.08522115647792816,-0.011717909015715122,-1.036689281463623,-2.865859270095825,10.016142845153809
1713722601922109939,0.01810949482023716,-0.06072007119655609,-0.06285060197114944,2.4193408489227295,2.1978771686553955,12.63899040222168
1713722601931109939,-0.07030745595693588,0.017044231295585632,-0.058589544147253036,3.0394389629364014,2.318784236907959,12.279860496520996
1713722601941109939,-0.11504855751991272,0.05965480953454971,-0.06817692518234253,0.5578489899635315,-1.5717934370040894,11.464634895324707
1713722601950109939,0.024501081556081772,-0.004261057823896408,-0.0884169489145279,-3.8989574909210205,-8.021772384643555,8.881291389465332
1713722601960109939,0.09800432622432709,-0.04687163606286049,0.058589544147253036,-1.941697597503662,-5.676651954650879,8.329427719116211
1713722601969109939,0.2631203234195709,-0.06178533658385277,-0.08948221057653427,2.1930887699127197,1.0211269855499268,8.337807655334473
1713722601979109939,0.14594122767448425,-0.006391586735844612,-0.014913702383637428,2.096123456954956,4.125209331512451,9.015366554260254
1713722601988109939,-0.003195793367922306,0.03302319720387459,-0.09480853378772736,1.434126853942871,6.433219909667969,11.462240219116211
1713722601998109939,-0.18429075181484222,0.05752427875995636,-0.03195793181657791,0.7206547260284424,5.1152119636535645,10.527304649353027
1713722602007109939,-0.30786141753196716,0.05965480953454971,-0.055393751710653305,0.6260837316513062,1.8638859987258911,9.396044731140137
1713722602017109939,-0.18748654425144196,0.008522115647792816,-0.08415588736534119,-2.388216257095337,-4.4532151222229,8.061277389526367
1713722602026109939,-0.10759171098470688,-0.05326322093605995,-0.003195793367922306,-3.1447839736938477,-7.269993305206299,7.960720539093018
1713722602035109939,0.03195793181657791,-0.05432848632335663,-0.023435818031430244,1.2521674633026123,-2.4001872539520264,10.199298858642578
1713722602046109939,0.004261057823896408,0.02130528911948204,-0.03941478580236435,3.159149169921875,1.624465823173523,12.90833854675293
1713722602055109939,-0.049002163112163544,0.09587380290031433,-0.06391586363315582,2.313995838165283,1.623268723487854,12.0392427444458
1713722602064109939,-0.026631610468029976,0.0788295716047287,-0.055393751710653305,-2.3044190406799316,-3.0597896575927734,9.649829864501953
1713722602073109939,0.030892668291926384,-0.001065264455974102,-0.014913702383637428,-4.612429618835449,-6.200982093811035,7.981071472167969
1713722602083109939,0.13209278881549835,-0.058589544147253036,0.04580637067556381,-1.1635819673538208,-2.1966800689697266,8.190564155578613
1713722602093109939,0.14487595856189728,-0.05326322093605995,-0.026631610468029976,1.5969325304031372,2.655169725418091,9.647435188293457
1713722602102109939,0.041545312851667404,0.011717909015715122,-0.00532632227987051,2.013523578643799,4.841075897216797,9.920374870300293
1713722602111109939,-0.1395496428012848,0.05965480953454971,-0.022370552644133568,1.193509578704834,5.102043628692627,11.335348129272461
1713722602121109939,-0.24927188456058502,0.07350324839353561,-0.004261057823896408,-0.07661445438861847,2.316390037536621,11.835736274719238
1713722602131109939,-0.1342233121395111,-0.02556634694337845,-0.03195793181657791,-4.288015365600586,-5.8203043937683105,8.718484878540039
1713722602140109939,-0.06604639440774918,-0.1065264418721199,0.1022653877735138,-4.274847030639648,-8.778340339660645,7.362170219421387
1713722602149109939,0.1342233121395111,-0.10439591109752655,0.04261057823896408,1.6927006244659424,-2.609679698944092,8.990227699279785
1713722602159109939,0.11504855751991272,-0.011717909015715122,0.02876213937997818,3.845087766647339,2.1296424865722656,10.715249061584473
1713722602168109939,0.03302319720387459,0.07563377171754837,-0.003195793367922306,2.7509377002716064,3.9851486682891846,11.459846496582031
1713722602178109939,-0.12783172726631165,0.1203748807311058,0.027696875855326653,1.1013327836990356,3.5613749027252197,10.863690376281738
1713722602188109939,-0.16831177473068237,0.08309062570333481,-0.011717909015715122,-2.5115175247192383,-0.5841851830482483,11.140220642089844
1713722602197109939,-0.05326322093605995,-0.03621898964047432,0.026631610468029976,-5.243301868438721,-6.704961776733398,8.057685852050781
1713722602206109939,0.009587380103766918,-0.092678003013134,0.11185276508331299,-1.7741034030914307,-4.649539470672607,7.692569732666016
1713722602216109939,0.12783172726631165,-0.08522115647792816,0.020240023732185364,2.47560453414917,1.0546457767486572,9.348160743713379
1713722602225109939,0.014913702383637428,-0.002130528911948204,0.04048004746437073,3.025073766708374,3.331531524658203,10.611102104187012
1713722602235109939,-0.10546118021011353,0.06178533658385277,0.013848437927663326,2.3343465328216553,3.9181110858917236,12.633005142211914
1713722602244109939,-0.1757686287164688,0.06817692518234253,0.0,-0.33758243918418884,-0.05147533491253853,12.221202850341797
1713722602254109939,-0.044741105288267136,-0.03302319720387459,-0.006391586735844612,-4.565742492675781,-7.501033782958984,8.819042205810547
1713722602263109939,0.014913702383637428,-0.08735168725252151,0.11717908829450607,-2.167949676513672,-7.100005149841309,7.85657262802124
1713722602272109939,0.20559602975845337,-0.07137271761894226,0.017044231295585632,2.9544448852539062,-0.5614402890205383,8.377311706542969
1713722602283109939,0.11291802674531937,0.02556634694337845,0.034088462591171265,3.2561142444610596,2.9281086921691895,9.636661529541016
1713722602291109939,0.003195793367922306,0.092678003013134,0.001065264455974102,2.1799206733703613,4.638765811920166,12.046425819396973
1713722602301109939,-0.13635385036468506,0.1161138266324997,0.019174760207533836,0.568622887134552,3.270479440689087,10.378864288330078
1713722602310109939,-0.13635385036468506,0.05645901337265968,0.002130528911948204,-3.2106244564056396,-2.0207061767578125,9.457096099853516
1713722602320109939,-0.04367584362626076,-0.05432848632335663,0.06072007119655609,-4.513070106506348,-6.727706432342529,7.7763671875
1713722602329109939,0.06178533658385277,-0.07350324839353561,0.11078750342130661,-0.17477671802043915,-3.5889081954956055,8.74721622467041
1713722602339109939,0.11504855751991272,-0.026631610468029976,0.03621898964047432,2.8993782997131348,1.5634137392044067,10.414776802062988
1713722602348109939,0.024501081556081772,0.05432848632335663,0.03834952041506767,2.6791117191314697,3.37941575050354,10.879252433776855
1713722602358109939,-0.12783172726631165,0.08948221057653427,0.02130528911948204,1.2545616626739502,3.177105665206909,12.076353073120117
1713722602367109939,-0.09906959533691406,0.019174760207533836,-0.03195793181657791,-3.028665065765381,-2.7054479122161865,11.191695213317871
1713722602377109939,-0.019174760207533836,-0.092678003013134,0.06391586363315582,-4.677073001861572,-8.44554615020752,8.210914611816406
1713722602386109939,0.1161138266324997,-0.11717908829450607,0.07030745595693588,0.8487445116043091,-4.817133903503418,8.497021675109863
1713722602396109939,0.21944446861743927,-0.044741105288267136,-0.01810949482023716,4.07014274597168,0.6165069341659546,9.32541561126709
1713722602405109939,0.15233281254768372,0.04367584362626076,-0.020240023732185364,2.9700071811676025,3.271676540374756,9.11352825164795
1713722602414109939,0.0,0.08948221057653427,-0.020240023732185364,1.479616641998291,5.202600002288818,11.279084205627441
1713722602424109939,-0.16085493564605713,0.09161274135112762,-0.026631610468029976,0.3363853394985199,4.376600742340088,11.354501724243164
1713722602434109939,-0.2183792144060135,0.06072007119655609,-0.007456851191818714,-1.7597382068634033,-0.10654197633266449,11.024101257324219
1713722602443109939,-0.07243797928094864,-0.05326322093605995,-0.04261057823896408,-4.496310710906982,-7.016208171844482,8.042123794555664
1713722602453109939,-0.007456851191818714,-0.092678003013134,0.08735168725252151,-1.5598224401474,-6.107608318328857,7.924807548522949
1713722602462109939,0.148071750998497,-0.07669904083013535,-0.04580637067556381,2.9089550971984863,0.040701426565647125,9.545681953430176
1713722602471109939,0.04261057823896408,0.011717909015715122,-0.004261057823896408,3.22139835357666,2.7964274883270264,11.18092155456543
1713722602482109939,-0.06924218684434891,0.06285060197114944,-0.07456851005554199,2.364274024963379,3.1016881465911865,12.846089363098145
1713722602490109939,-0.09054747968912125,0.06072007119655609,-0.0649811327457428,-0.9816226959228516,-1.4293383359909058,11.025299072265625
1713722602500109939,0.009587380103766918,-0.04261057823896408,-0.055393751710653305,-4.338293552398682,-7.620743751525879,8.324639320373535
1713722602510109939,0.10439591109752655,-0.08096009492874146,0.04367584362626076,-0.9193734526634216,-5.187037944793701,7.931990146636963
1713722602519109939,0.23009711503982544,-0.04687163606286049,-0.06711165606975555,3.1723172664642334,0.9528922438621521,8.954314231872559
1713722602528109939,0.14274543523788452,0.034088462591171265,-0.04580637067556381,2.6144680976867676,3.75291109085083,9.131484985351562
