t,ax,ay,az,wx,wy,wz
0.0,-0.09702167400036256,0.0035249956799618017,-0.012738438788890992,0.0021460071454587606,2.893256893415246e-06,0.0009696412382455774
0.009,-0.06921063499886723,0.020848176236384006,-0.010442018689111647,0.0020869264772438844,-0.00015188881232489017,0.0009045788481900658
0.018,-0.05362480526923592,0.044124881815181954,-0.006525846345643415,0.0020119737031142155,0.00021297979599933537,0.0003998609490506588
0.028,-0.07494927233814272,0.02444116255715168,-0.005493986259946217,0.002060261941514845,0.00012869727936240755,0.0003845934720207738
0.037,-0.10023377623493017,0.00022075086853614104,-0.00701373896860681,0.0018950604848711934,-7.210973172408114e-05,0.00042556628147606506
0.047,-0.08134332021343485,0.02249975299193657,-0.007561954026711816,0.0014967468698150696,-0.0004973336803536744,0.0006109826480224713
0.056,-0.05740018199594933,0.04961341085760346,-0.006250082513788437,0.0018160252964082035,4.6809915250435586e-05,0.00032125474110881774
0.066,-0.0798490609531024,0.027793468527929688,-0.0074215256950406205,0.0020881866586839686,0.000136458605625397,0.00032549663446706557
0.076,-0.09763672320814581,0.006060596412139588,-0.009059318878255718,0.0018066723233362476,-0.00027298257397857415,0.0004135222445146773
0.085,-0.07455290854172363,0.026079587297005415,-0.007026643982509693,0.001837100740462728,-0.00016692013813977139,0.00043208826425949695
0.094,-0.06110452771271478,0.03785256009943671,-0.0062703641244468925,0.0019378753827390743,5.3527763179458314e-05,0.0005298143025305128
0.104,-0.08116709500960875,0.013528011059479275,-0.01331612607797359,0.0018270747271276098,0.0001733791464563832,0.0003274929506515793
0.113,-0.09524858263354369,0.004510190288686027,-0.015288739101461186,0.001339041065846864,3.2079704822695774e-06,0.0004281011516699337
0.122,-0.07429044876667347,0.029441325540285064,-0.006533083019272142,0.0016987511310682364,-0.00023987509353242734,0.00046429460665568936
0.133,-0.06809084285922304,0.03298016619238113,-0.0033264314547315644,0.0015814663123136213,-0.00013836814470095425,0.00022585088926212215
0.142,-0.09440685512237845,0.009983295199263446,-0.011702972317170912,0.0015127980073433198,8.572527570990994e-05,0.0002835038912461327
0.151,-0.09545501562605671,0.003042524599565201,-0.01323971326978363,0.0017488354796754443,-0.00021184675949039225,0.000981167740337705
0.161,-0.07143808341237759,0.025491634569099857,-0.005193457344190525,0.0017388652182221218,-0.00042348234070786273,0.000991635270456941
0.17,-0.0678569055397644,0.03221504817615897,-0.004170391340079309,0.0019335206123909355,-0.0003111439869586542,0.00015955688403797687
0.179,-0.09395382400852952,0.012306604218751249,-0.010635294914208383,0.0019373864396430704,0.00021520449102075133,0.0003289939968165604
0.19,-0.09211709261818216,0.016483926632762803,-0.006984419762709501,0.0016987091529931935,0.00011954954399072778,0.0007888366139588323
0.198,-0.06532118074606101,0.041927398457866874,-0.0015951820541550898,0.0019340792921556306,-0.00017111783328805302,0.0007353807240793717
0.208,-0.07545303468920092,0.03753078451949606,-0.006484938916838176,0.0015215562631906256,0.0005729505428633897,0.00027308564669608737
0.217,-0.10240864001981548,-0.0001641169869602728,-0.010672100416725127,0.0015375534306110777,-0.00022350279946187394,0.00013858103005987438
0.227,-0.0924065336878637,0.0032647619072782956,-0.008087867114022523,0.0019310865914796652,-0.0003528369238270197,0.0004900611700522292
0.236,-0.06776311426790707,0.03414222664677121,-0.005257486486871288,0.0017305738230922042,-3.395911283057173e-05,0.00033189855080745375
0.246,-0.07621029300345897,0.031846737637142256,-0.0073985303785005715,0.0017276748424721838,0.00018864202880805348,0.0003440364824406623
0.255,-0.09520881333598184,0.011809313756598012,-0.008841134606962854,0.0019111310343244237,-0.00017277476270161895,0.0007055229676831121
0.265,-0.09218170703894685,0.013578893197569351,-0.004909177215121608,0.001755192653295734,0.00020169647089079528,0.0007279910210340149
0.275,-0.07623987901371405,0.04029068218278367,-0.006338312713124735,0.0019059471087407756,0.00021370979673305987,0.0005720123040836836
0.284,-0.0809397094983357,0.03152333221874787,-0.01127860565273307,0.001550424776362848,-0.0001812961403006062,0.00012380941721848552
0.293,-0.09548579882434277,0.008663299107554635,-0.009631486835301196,0.0013028693863291847,-0.0004037675075705988,0.0007051541370912738
0.303,-0.0794035938910532,0.019588591251066836,-0.0023421500593638987,0.001508876989280076,-0.00042898076413425406,0.0007521531095192787
0.312,-0.06801106956312351,0.03274268340264231,-0.0009434700377075169,0.0018856599744100971,0.00031541862068498684,0.00036452515322108435
0.321,-0.08448737716405542,0.01680168377043501,-0.009069700385205375,0.0019346989570710198,9.26210779441773e-05,0.0005219909038582191
0.331,-0.09758622982315507,0.0029648064635845843,-0.015782562445540476,0.0019366840876069403,1.899054396870735e-05,0.000751241907177084
0.341,-0.08025315499025996,0.022700937322211116,-0.009059060889928992,0.0019602483065378046,-0.00023552109718817467,0.0005365814490212911
0.35,-0.06747958615670582,0.034232509942659355,0.00023410727091301327,0.0017951311005702123,1.1899628947798169e-05,0.0005121780310743232
0.359,-0.08622579205132173,0.025062561301750986,-0.003438545021917658,0.0018888319964368147,0.0001659952281133111,0.0003793293457905928
0.369,-0.09350133309308048,0.00959807705108261,-0.013092823699690566,0.0018917710695270037,-0.0002763224064186387,0.0007046108476854063
0.378,-0.07275699361027924,0.02266781816321834,-0.01174619164577088,0.0019365819770901039,-0.00013547219939460592,0.0006858870467524474
0.388,-0.0650859857442317,0.03773956203179245,-0.00266776493209135,0.0019380688881495806,0.000163741112092129,0.000597485219773142
0.397,-0.08449238013544165,0.009819016954225799,-0.0026354640309683534,0.0019021880929638582,0.0002590203115929047,0.0004976079627910441
0.407,-0.09094466451999166,0.002308027260930604,-0.008706880189942933,0.00213226842784106,-0.00020018035390603864,0.0009106713121918572
0.417,-0.0633097385707054,0.03249598030021708,-0.008147404580239031,0.0020424319025389515,0.000172808722446319,0.0006256538015307758
0.426,-0.06141355857838561,0.036803983001927325,-0.0080162695140546,0.0017725433465919783,0.0002544762231593878,0.0003272658185067397
0.435,-0.09276274046576741,0.011854398545324437,-0.011805050359059642,0.002015186167498364,-7.739275747046742e-05,0.0003268159325901199
0.445,-0.09650343430934573,0.009031590042812211,-0.012091113657245642,0.0016542322328960105,-0.00036435455887211303,0.0004972239770848902
0.454,-0.07254653611097137,0.038285669119946276,-0.004813209283160184,0.0014881210313682145,5.403690680568906e-06,0.0005864170556000147
0.464,-0.07314552524727844,0.03873407166272634,-0.0016693572235284707,0.001727154691833456,0.0002199604799217213,0.00016430336155688721
0.473,-0.0900438268296807,0.007610626903552964,-0.008869233078850668,0.0018329488974965615,-2.986418890861271e-05,0.0006147788612300496
0.483,-0.08440868223919405,0.0038159425581338335,-0.012990678771316549,0.0017165481934433716,-0.0003718276277541501,0.0005915021241889637
0.492,-0.06236447548639484,0.0336551642999041,-0.00731933600319302,0.002014652166903782,-0.0001699889672953792,0.00032318499903500193
0.502,-0.07007944171764487,0.036448302319936225,-0.0037839449271559614,0.002190207696512138,-5.501853545329346e-05,0.00043283092608977316
0.512,-0.0968805553273089,0.008573924554998103,-0.010878524126094595,0.0022505802000445975,-0.00010174024619871383,0.00042557780043215004
0.52,-0.08881971812374827,0.011691379983156135,-0.012357193205168,0.0018942981361497245,-0.00020768130154599754,0.000775557123438102
0.53,-0.06495187680771551,0.043194733235763554,-0.005573778797436077,0.001936487318321931,0.00012062942099040516,0.0007853757691551081
0.54,-0.07798108375334925,0.0391937732522545,-0.005838962516980259,0.0016403550188691903,0.00034403923486951644,0.00045472031418802036
0.549,-0.10617869284751709,0.006269541512261351,-0.012915425344528537,0.0016772708425313828,-1.731690292753883e-05,0.0003314479658339644
0.558,-0.08725271481594209,0.013165579235105761,-0.012496525388809215,0.0017666257477857944,-0.00031078513421343556,0.0007496644461819003
0.568,-0.05449169617269677,0.03867043651507475,-0.0027451021794905623,0.00191710550585747,-0.0004026644830951286,0.0005124201849460242
0.577,-0.07191579221687053,0.023224731529472197,-0.002158802319860517,0.002150573065099554,0.00010400772933753157,0.00040861229428893386
0.587,-0.10285734645344746,-0.004784577401785135,-0.011134557749966167,0.0020252192585978167,0.0002181936769070953,0.0004442739313105409
0.596,-0.088563688665635,0.0143044418943542,-0.011942943213483855,0.0019359083384138185,-0.00022388124706872913,0.00062223575317849
0.606,-0.062265326317729616,0.046106051047945226,-0.005207287144314781,0.0018250845015794373,7.401139724912988e-07,0.000660078760043726
0.615,-0.08062053131519267,0.026462748254608353,-0.0048434986185563016,0.0018261175453763636,0.00010303889131136818,0.00039078947680142864
0.625,-0.10476515240928674,0.00268485362792174,-0.0087179591625412,0.002057271721175385,-0.0001852814776178492,0.0006720950477223681
0.634,-0.08747388425423364,0.02293661093474591,-0.008870081238214846,0.0020574211771503493,-0.0003619418535637984,0.0005363630175759263
0.644,-0.057709127413782035,0.045911366521054986,-0.007878026199078018,0.0018308890207637315,-0.00018347796605209797,0.0005322837023100712
0.653,-0.07722749225500303,0.022364226919346107,-0.009178423106858277,0.0018026041816389506,0.0004342763633417894,0.00013135540065617668
0.663,-0.10389270926675083,0.0008559494023766649,-0.008663119466776777,0.0019387124611139222,0.00012008532547667851,0.00034658986306976085
0.672,-0.07931521252724519,0.026953322119116527,-0.0056126055510028194,0.001726131955419683,-0.0002613539503773409,0.0008232240033223251
0.681,-0.055188676386111093,0.04203418957756701,-0.004495373541667692,0.0017250241005084415,-0.00015663277167491616,0.00047329230111950855
0.692,-0.07708497826446838,0.01300388379733879,-0.009093744630784155,0.002065727308182595,-0.00032191699550109855,9.936186158660535e-05
0.701,-0.10007915253301458,0.0020017842911810163,-0.013606522879009608,0.0019136069612567495,-0.0002950687547659302,0.00034692945107406845
0.71,-0.07997463262237078,0.03479377169389583,-0.01203950929677882,0.0019114910029411213,-0.00026571898700507876,0.0003211540622158345
0.719,-0.06646103847000766,0.05065482369908701,-0.007898010051310007,0.001613239735924113,0.0002838662853957496,0.0003221271989036543
0.729,-0.09098269378776042,0.026340126109370282,-0.010008634419678567,0.001937278971500827,0.00013122276639413718,0.0003475205516342469
0.738,-0.10453500918763439,0.012926356341843862,-0.011291461968468083,0.0017331834093380382,-0.0002411862426338872,0.0005910568102052913
0.749,-0.07628407825389764,0.03783968329499896,-0.008022932026551192,0.0017168029976941117,-0.0006201180430381523,0.0007508912145504391
0.757,-0.06414049869944696,0.04268997498959341,-0.00682452965725158,0.001725926068582335,-0.00027879021131438895,0.00045456270255574366
0.767,-0.09170659760849752,0.009849316692519233,-0.009041020654123561,0.0017377385250681103,0.0001712294811084504,0.0006304940500025523
0.777,-0.09862445745086501,0.003124125212635151,-0.009786384162112657,0.0017817793742766319,-1.2895911019661623e-05,0.0006471529703935047
0.786,-0.07222691419926652,0.027240313148654195,-0.005533333361628121,0.0019375332609322968,-9.085292681141406e-06,0.0003201672557652769
0.795,-0.06976888162110208,0.04388638824905815,-0.006739160963004486,0.0019389060110965159,0.00017679436684095982,0.0002826335602418128
0.805,-0.09809820934251,0.01890578325665316,-0.011888959487132332,0.0019387671047536796,6.930417852102111e-06,0.0003868000136534315
0.814,-0.10269650463285186,0.0030901075280448283,-0.009547904624838115,0.002004783995774367,8.456200549837806e-06,0.0006072838193113396
0.824,-0.07516269654019186,0.03272815819230099,-0.0045309621639445475,0.0019905993922619196,-2.7174772163439615e-05,0.0007474398903748925
0.833,-0.06907000672143795,0.039977313591660645,-0.0060225032850689105,0.001589497621042172,-0.0002487349322035815,0.0004893883609887738
0.843,-0.09137971678233792,0.012306005253894973,-0.013161782764084643,0.00200623644084518,4.1658005341354054e-05,0.0004232888646075782
0.852,-0.08528584510492612,0.013032685632734079,-0.011420040026135385,0.0020738899080314887,-0.00023583758106214209,0.000893635231380718
0.862,-0.06338428253344341,0.03669120362390968,-0.0038147436914601476,0.0017583524786777421,-0.00024048065935467421,0.0003291930467556291
0.871,-0.0704129156171267,0.030629291203991417,-0.0033124663971627506,0.0019331387936431077,-0.0002826643493836574,0.0003262596240579486
0.88,-0.09650371374606462,0.011937724308325709,-0.009584238483340677,0.001974803115150546,0.0001329009961601815,0.0006448417638848208
0.891,-0.09185451947357161,0.027413761666929302,-0.009066386157855277,0.0020487000681273224,-0.00045776753184330305,0.0006249976208600578
0.9,-0.06282946996235629,0.04821327685952702,-0.003442034679690768,0.001687908785172001,0.0001060590364168163,0.00042941751302377957
0.909,-0.06813901632580747,0.03435301626695672,-0.001978618776023364,0.0015145252072570955,0.00022254259772429738,0.00021035635701964196
0.919,-0.10117755705676912,0.007079991560231303,-0.007721097173168908,0.0018618523170689078,-2.806881428208199e-05,0.0005487319187928737
0.928,-0.09374618427908589,0.016965141391666043,-0.012555554581002312,0.0018086242245163536,-8.900880484645073e-06,0.000767915954979089
0.938,-0.06530223230503682,0.04089312895691102,-0.006638888117432426,0.0017172188505697446,-0.00015418725299030621,0.0005155457758942591
0.947,-0.07858548872689802,0.032355914032976725,-0.003983194708140916,0.0017171075704758851,7.706528967027948e-05,0.0003700744290314025
0.956,-0.10345019838489386,0.008528548541968762,-0.007870284924668203,0.0017254970214105637,0.0001182339660272052,0.0007512797777467365
0.966,-0.08409713808047074,0.016566960404413165,-0.010111966671687705,0.0017260475645302508,-0.000456431709922277,0.0007434343922633527
0.975,-0.054296301612905176,0.034224842623175586,-0.006065853383213558,0.0014851863734317437,-0.00015708852846594039,0.0005403596326867658
0.985,-0.0682730283800469,0.01869469641402658,-0.005670756557530542,0.0013780845621866494,0.0002243590955521197,0.0005222403207454974
0.994,-0.09161380653677689,-0.0025775982145409843,-0.0088937303217116,0.0021146180972819407,1.3518446573351149e-05,0.00017100611557146437
1.004,-0.08265370084481288,0.015714208385047997,-0.008529146354950359,0.0019374276304525543,9.936164930411065e-06,0.0008765367243210176
1.013,-0.06764149489091248,0.04396803730788601,-0.005755586014297119,0.001956179106269256,2.5306006961089208e-06,0.00016744004207632364
1.023,-0.08347062616546708,0.02480916704701108,-0.00601565701868721,0.0021317908840116076,0.00041336740240283153,0.0004921752108694612
1.032,-0.1008079229230156,0.0025248689139183676,-0.010799397222409617,0.0015497734839091954,1.06094372270565e-05,0.0007427337134126529
1.042,-0.08186797812505914,0.0233242750586524,-0.007760698943534501,0.0017007462658350707,-0.00036514928532419596,0.0009399081069397413
1.051,-0.06575413128038463,0.04406510428909152,-0.001760097817071273,0.0019048598152797268,0.00013953260470011704,0.00035615998012203967
1.061,-0.08252103289631955,0.02750212112086985,-0.007228571129551532,0.0017352371102275273,1.1190639736455006e-05,0.00033204203937073817
1.071,-0.10059245826921112,0.005830097628239488,-0.014122405546574367,0.0019266864997136846,-0.00014591518010863242,0.0005665743731185151
1.079,-0.07811738999939047,0.020989201460316968,-0.009987369015064817,0.0019602058840869035,0.00021141108767591966,0.000914520576712728
1.089,-0.059609398912835204,0.03866094827176249,-0.005724620396370369,0.002142625939130016,0.00018110953093381383,0.0005857569370267556
1.099,-0.08580649322037773,0.023829870107058258,-0.0063951226215115935,0.0017585583629776379,0.00020957352885524427,0.0005424769449936057
1.108,-0.1041632388234776,0.005977796396062593,-0.0075220798466838976,0.001724534833674144,-0.0003563624106747593,0.0007562959844937252
1.117,-0.0803894722007798,0.025561495839165088,-0.007926520336292353,0.0017221219869026742,-0.0003724922503505747,0.0009079657034155387
1.127,-0.06484683013348395,0.043237898401636166,-0.008868955742335679,0.0018852705884375915,-4.476392212654837e-05,0.0007951804546288966
1.136,-0.08206475841189154,0.02066465511679978,-0.010215815922526565,0.0017926303782768952,-2.807868635472033e-05,0.00042458489901597
1.146,-0.09349144165653846,0.006754407945967128,-0.006361703970973737,0.0017231549976636422,-0.000307671303086771,0.0005197763052596324
1.156,-0.07860907021480125,0.036084399450415375,-0.0017444734963103694,0.0015652000632093968,-0.0004130112141344278,0.0005308335682858336
1.165,-0.07453488247432125,0.045802453298776406,-0.0024531082968188094,0.0016775999224647392,-0.0002582865120990997,0.00028110551824761553
1.174,-0.0950700966349258,0.016206352137120884,-0.0051720576463949505,0.0020695022224098848,0.0001257363783363813,0.00032678329141121165
1.184,-0.09639517019490793,0.005053245904776724,-0.005195064603658298,0.001942023722876472,-9.649133333091629e-05,0.000746389475338601
1.193,-0.07061605835611769,0.03318767937093993,-0.002582603026684531,0.001725440754227338,-0.0001078782287325964,0.0005454154007232054
1.203,-0.06645297137563058,0.037353849849451046,-0.0028048327665328773,0.0019831659980348425,2.3494546116335844e-05,0.0003555169337863726
1.212,-0.09513222497437993,0.00915639965353298,-0.010580766658214613,0.0018853195104279459,-7.91380387850256e-05,0.0005100554742474933
1.222,-0.0972938424396311,0.008811497093324797,-0.011714111680815813,0.001796679006008889,-0.0002488856712155619,0.0007527222724076263
1.231,-0.06532065330340908,0.03219410014560864,-0.005889511248000375,0.0019094564190320217,-0.00021291412415725913,0.0005652169697553099
1.24,-0.06529590404849568,0.02990633821081417,-0.00373539560530195,0.002267449487677866,-0.00016235833465056974,0.0004086086055368625
1.25,-0.09516419252165273,0.00664895069133796,-0.008271518903308977,0.002073139565634594,-0.00020451662673250383,0.0004315628209035128
1.259,-0.09406913810924596,0.012045757684872229,-0.009060639846471506,0.0019270476374674717,-0.0002273145344143098,0.0008746191349511972
1.27,-0.0633978718061595,0.039335138604624426,-0.004259729678937311,0.0018860975126243624,-2.517547256627902e-05,0.000612764582314598
1.278,-0.06777981581469127,0.030392559116727103,-0.007750211336721176,0.0020983182159629897,-5.80442703066976e-05,0.0003279986779992117
1.288,-0.09993237004040535,0.005505665696626586,-0.01217506579833031,0.0021474924995508785,-0.00022320248881618095,0.0007087176387689653
1.297,-0.09070775419330854,0.018225014049799437,-0.010393779328569866,0.0019302411201566612,-0.00037615261809708137,0.0008256569496084209
1.307,-0.059071025231266526,0.045152309948644394,-0.005424893722117927,0.0014669765495160965,9.092527876978959e-06,0.0008840552574886248
1.316,-0.07325022717435456,0.03140696221185646,-0.0040697597081394265,0.0017702536388885864,-0.00013797256523207516,0.0003967948271128329
1.326,-0.10134803766822205,0.002228929224019762,-0.008539066028135282,0.0016021557146167428,-0.00020204681386498004,0.0005893719333519358
1.335,-0.08450981126000745,0.0207275260405342,-0.008539911617450689,0.001575107060439503,-0.0004172065864478969,0.0007580278745175236
1.345,-0.06181515590190266,0.04726882180042939,-0.005164431677572044,0.0015397505290898094,-4.832822936872368e-05,0.0007044791226662195
1.354,-0.0820598338316007,0.02409041370744222,-0.006428223018785835,0.001727184777055004,1.3303350715266037e-05,0.00038704221008049286
1.364,-0.10964184472844696,-0.0011586705834080897,-0.010185815201109573,0.0017260575610198053,6.4888575602209105e-06,0.0005005319251112283
1.373,-0.09059170467449457,0.020648593937310406,-0.007929415791476394,0.001935586890434845,-0.0001316524718598843,0.000535950515293065
1.383,-0.06620935699257091,0.048600338303904686,-0.0022342434945952843,0.0017251052872816232,-5.6851896994192534e-05,0.0003751144966842116
1.393,-0.0790515789771078,0.024730188274342316,-0.007101250348773986,0.0018432713251264814,7.044860915465703e-06,0.0002089875389130639
1.401,-0.08904591622831824,0.005495333020826793,-0.00985572417167406,0.0018536035339625902,1.3236972485504119e-05,0.00046784554220697175
1.411,-0.06698482276736878,0.027849212012475175,-0.004600574966590415,0.0018145793330450537,1.19543293457941e-05,0.0005368615495807553
1.42,-0.0579724758562576,0.04625056769216755,-0.0032663794774663085,0.0019376090502540842,6.648426534697536e-05,0.0006194407898324904
1.43,-0.0883401235320644,0.024918780382808568,-0.009267924675370161,0.0019232424318540798,0.0001339762206259096,0.0003250785212665174
1.439,-0.10515885166885844,0.005923428247778605,-0.012785965936418626,0.0017373640047572774,-0.0001779742750159128,0.0006538378145300193
1.45,-0.082837827796445,0.02565293559712006,-0.006219746068068389,0.0019367698092700833,-9.424105194064849e-05,0.0007348745398975956
1.458,-0.06922803369198827,0.04281746986206494,-0.0017146727241245854,0.001938051028336104,0.00021503408176089551,0.0006745069064084831
1.468,-0.08861491091709567,0.025014851994348147,-0.006995778215003757,0.0018629522822031955,0.00043259255099449686,0.0003351764702884437
1.477,-0.09968813285456993,0.012989960172958046,-0.009585987988032561,0.0016670777204114721,-0.00014201837849516118,0.0006430324440219721
1.487,-0.0819569795123847,0.03446913580682426,-0.004063553281343742,0.0013261699539444817,-0.00036162584970919837,0.0006420184644505739
1.496,-0.07639938851131768,0.03348732655235295,-0.0025975204887910925,0.0014835345876342318,5.0357092475565e-05,0.0005428956318181217
1.506,-0.09606660709722598,0.008893591076338477,-0.008023932027404427,0.0016485090488679514,0.0002766711540246482,0.0003330187605666288
1.515,-0.09496403878202926,0.006354361828982816,-0.00909172727562436,0.0019864423081254654,0.00011875018678932659,0.0004766987479530366
1.525,-0.067006866406876,0.035476289416707635,-0.003283584079967431,0.0019377496292557873,6.796748837193062e-05,0.0006543230134053693
1.534,-0.06433517954532139,0.03850330088435515,-0.0030529914469022467,0.0019021975322450519,0.00016030243222489644,0.0004509817849730883
1.544,-0.09376329492479415,0.008229309621405757,-0.010542015497227605,0.0018768619652706018,5.070584245672462e-05,-2.675971925519935e-06
1.553,-0.09623709268143109,0.009798085583352496,-0.013644287569204036,0.0016872039294967148,-6.856833146439084e-05,0.0005435307701489481
1.563,-0.07348886184655323,0.03975905485364453,-0.0073500654782928335,0.0013556788795668375,-0.00010816495699458048,0.0004866635735326532
1.572,-0.07257428393537055,0.03747348344099649,-0.0031213475697630015,0.001725838666546133,4.550704298983822e-05,0.000414607748481773
1.581,-0.09658616353690792,0.007904489755127371,-0.00887798901529796,0.0018781177439440193,0.00019227554643339668,0.0005411571475266369
1.591,-0.08929647405894595,0.008614104319775079,-0.009152269184487413,0.0020095904450157893,9.871232239999964e-06,0.0007813644806508228
1.601,-0.058810835746946725,0.03990225358588308,-0.002137065728739865,0.0019003476099101351,4.1755020593334095e-05,0.0008804415136716775
1.61,-0.07888103061108585,0.034030448507200245,-0.003802149985295776,0.0017275099174213753,0.00019087418867862714,0.00029773443974911453
1.619,-0.10889537535127983,0.0008442626992639056,-0.009954303939530151,0.0017238522355994743,-0.00021254140479674897,0.00032373340059279416
1.629,-0.09378119151446572,0.01497802481498657,-0.007980607242633171,0.0016836693045026829,-0.0006896686431040692,0.0004945566453031641
1.638,-0.06630710733113523,0.04055103888474308,-0.002850477260677246,0.0015275813440197008,-0.00038489023308273793,0.00056808081828937
1.648,-0.07608980680830871,0.01766255051329317,-0.007933856088784086,0.0017577614079067926,5.6618581539024705e-05,0.0004114344270985895
1.657,-0.09152077094829066,-0.007356459522072378,-0.013532917626237232,0.0018225938898820103,-5.919189936479685e-05,0.000752667426942694
1.667,-0.07619082437868249,0.018484897091977114,-0.0059044064328252046,0.0016160775686321306,-0.00014930531171502813,0.0007552188559984329
1.676,-0.056442780131095334,0.05136259233678829,0.001265426001028678,0.0017544655682584715,3.751143961424101e-05,0.00045258431584954255
1.686,-0.08365018761102216,0.03154035147592099,-0.0073391680610035105,0.0016808179118868013,0.0003871058029830608,0.00041013694175209435
1.695,-0.10821961810605255,0.0021975671950884984,-0.016350982426750607,0.0015191955033895263,-4.429190619083549e-05,0.000686832333111812
1.705,-0.08098332905541006,0.024312834637599322,-0.009890054993474883,0.0017194762617777249,-0.0007055473290848881,0.0005352265429949473
1.714,-0.05755620394555567,0.04565574201166865,-0.00033545856836215623,0.0017339568214338583,-0.0007751249274997395,0.00031814300125584526
1.724,-0.08574970438572405,0.015163965188476347,-0.004989362675623924,0.0019274087171883378,-5.9326429144702475e-06,0.0003939963349323608
1.733,-0.10203733140117338,-0.005183230521435857,-0.013759294131241879,0.001925609405704978,1.1071004374261752e-05,0.0007320615556915592
1.743,-0.07046412903406589,0.029475825825578582,-0.009561796167015486,0.0017369453106354353,-0.00014725961300993796,0.0007435151106154583
1.752,-0.06780291238259303,0.04810653978879927,-0.004331689240481487,0.0019285933544796153,4.142426903823898e-06,0.0003305974274395962
1.762,-0.10136490616251695,0.01718864141505253,-0.008739380009252564,0.0019258712022232002,0.00010800138522555652,0.0003671306657351146
1.771,-0.10833928149479831,0.006556316464360227,-0.01338212748559893,0.0017337954572419299,-0.0005584830432554172,0.0005752519041571593
1.781,-0.07506362560887736,0.03592570407672378,-0.009857033155107702,0.0017348735223603124,-0.0005888486532341975,0.0011270676336407773
1.79,-0.05907672348284707,0.0472980844023622,-0.006313130690292119,0.0017232620685729623,-0.0004573422434146216,0.0005564236250894753
1.8,-0.08584469826506345,0.012534107089950342,-0.0074186001720598655,0.0015238529752450694,-2.241810666009104e-05,0.0005484811999793208
1.809,-0.09764853213048033,0.003037204712924395,-0.008784688008693076,0.0017315487479824666,1.570891351041016e-05,0.0007323020801613673
1.818,-0.07315331980698159,0.04024837209637308,-0.007573641401930301,0.002122959173229257,-0.00030300070399882884,0.0005934079155160323
1.828,-0.07188424171713499,0.0480852834139378,-0.005581515055489915,0.0017078371915505842,0.0006065819287411484,0.0003180130749720697
1.837,-0.1009769493652542,0.01045111243728885,-0.006934551352615049,0.0019383863099018777,0.0004352234581317176,0.0003333916075800528
1.847,-0.09986939339353194,0.0031173132091348726,-0.006979324037344181,0.0019356685700280436,-0.00016462075967466972,0.0007546587774440204
1.857,-0.06473811019889947,0.039338719308824904,-0.0027071981501389166,0.001754363897414229,-0.0005898120596583692,0.0006982650079291636
1.866,-0.06308612708729003,0.03868285442160508,-0.0031879559799492083,0.0015492452460608088,0.00014905836123130936,0.00037204169863250995
1.875,-0.09564439718400242,0.0029690121028183823,-0.008437090451922404,0.0015142496380159244,2.7262179931118993e-05,0.0005232918314886331
1.885,-0.0911840879160824,0.006978020734818131,-0.007394499005655719,0.0015336148441165123,1.681406996678164e-05,0.0010986089941607412
1.894,-0.05864394482503038,0.04182713987979819,-0.001144498797617131,0.0016772028866652272,0.00024555156807767035,0.0006448496193480972
1.903,-0.06805674196923925,0.032682686111691554,-0.003262278443134977,0.001723788467486544,0.00015718035874026437,0.00033846230016336724
1.914,-0.10586735153057689,-0.0049923993382074375,-0.012598825133655445,0.001539486466591136,-0.00011720003801754097,0.0003456146160014323
1.923,-0.0966483380356356,0.012470903536809203,-0.010618147918416006,0.0017089024277202492,-0.0004128580808782529,0.0007494564968307373
1.932,-0.06254951183986533,0.05243548558576187,-0.003021615016330509,0.0018698879678791548,0.00010463645269746623,0.00036987439208343773
1.942,-0.07220210100009986,0.0351428772756168,-0.006138528044953722,0.0017602296809162382,0.0004019626740595403,0.0003116863009649702
1.951,-0.10527864000726475,0.000770404104570542,-0.012300051336537783,0.0018862846027162164,0.00011385637201842698,0.0005378547623481793
1.96,-0.09645255407079834,0.018787367795455534,-0.008075085415320846,0.0020067272844184114,-0.00019899093798731956,0.0008831753333748524
1.971,-0.06319917468463004,0.053829073208632824,-0.004397089100461148,0.002147958879157025,-1.3026653310843324e-05,0.0003630367631873188
1.979,-0.07552018116656127,0.033618164410530345,-0.006082162584759293,0.00207688104942885,0.00013360232092230715,0.00032187301982638205
1.989,-0.10504945507479073,-0.000368071841421274,-0.008404639852266353,0.001883309204755691,-7.005170205705608e-05,0.0003704851203504124
1.999,-0.08785835656886186,0.01567581483161748,-0.0057534526739053725,0.0016534362683070089,-0.00047309327980496994,0.0007783099001652679
2.007823974,-0.05970644622198244,0.0462553114291068,-0.001316294416028237,0.0020431549599169954,-0.0003075065899969757,0.0006118745033446501
2.016823974,-0.08157835237270064,0.024424616194860232,-0.005254627026514948,0.0020459284828451725,0.0001831671118534163,0.000536750504485226
2.026823974,-0.10558036108568933,-0.007304817450115405,-0.009130463240574371,0.0020527832239899207,-0.00023491745266474386,0.000538787713189976
2.035823974,-0.07219355585411304,0.02162097421139603,-0.003026149392091131,0.0020258411833873093,-0.0006316958684543668,0.000866201973658969
2.045823974,-0.05511744971248164,0.04813104806120566,0.0001627678637435414,0.0019662134781112924,-0.000232835083825022,9.693128602075555e-05
2.054823974,-0.08836913433950078,0.020161207042926562,-0.008419128490551066,0.0017239550360191335,-0.00038283492006213236,0.0002185922624267594
2.064823974,-0.10903443882752523,-0.006632621638226168,-0.015165894818374062,0.0020690525931545667,-0.0005129132398743845,0.0005729399393866496
2.073823974,-0.08334619486365988,0.02230225095550168,-0.00877503162835784,0.001910048574688225,-0.0005628198890893563,0.0009629085596350995
2.083823974,-0.06025403890246861,0.0445250565813554,-0.0027884359970447754,0.001972414501544873,-6.109686972432328e-06,0.00043810455714613644
2.093823974,-0.08615655572762373,0.018183738850677013,-0.007680406226057238,0.0017362821544669562,3.408819267687572e-05,0.00033399061201738587
2.101823974,-0.10108884066179546,0.007192808745743882,-0.01031584608050468,0.0017082171104123957,-0.0003921117520644068,0.0007016306912970786
2.111823974,-0.0689068841707204,0.031318253957293124,-0.004963263567735318,0.0017741390304560614,-0.0002075181699999132,0.0006626999956889335
2.120823974,-0.05915335672508483,0.041544837545551765,-0.0029277797711982426,0.0018288245339385684,3.9272200888051636e-05,0.0006948580395509979
2.130823974,-0.09059898395710189,0.009644657594787075,-0.01098750641071588,0.0018515072381253294,3.6569316703246766e-06,0.0005348470691297203
2.139823974,-0.10033626764375295,0.001137341817084074,-0.01392924526296175,0.0018652812295660414,-0.0003476610922624951,0.0006798307764946316
2.149823974,-0.06838939084794575,0.0394821719132606,-0.006829699050313298,0.0017948562003504915,-0.0001909821832258384,0.0006083357839938631
2.159823974,-0.06672262655435204,0.05107412781000441,-0.0031296865027371813,0.0018099833402307136,8.987448621447649e-05,0.00023654792246715402
2.168823974,-0.1064094669405669,0.016561588178761417,-0.0072852362841668095,0.0018427981614309028,-0.00013732864991711582,0.00040787461764177704
2.177823974,-0.10544412923993628,0.007924050575136392,-0.009705865640274872,0.0017229475631057927,-0.0006957116972658704,0.000458642499887992
2.187823974,-0.06385289532849407,0.03710609372436862,-0.005804384742540097,0.0017243865800262404,-0.00048705069141297944,0.000743634806255082
2.196823974,-0.06618147091953272,0.03937510484909686,-0.005210560679363314,0.0018038653317655343,-0.00019882302301179903,0.00040204824908050097
2.206823974,-0.10149445791890216,0.00531785851902394,-0.012804713750536864,0.0020763647746073186,-8.601955325958157e-05,0.0006848891307690611
2.215823974,-0.09237988198717562,0.002657015756415901,-0.010999673494987646,0.002091665363140328,-0.00026059737214700093,0.0008070018632306475
2.225823974,-0.060332874002113734,0.03632230905441498,-0.0023423110456804084,0.0016023985979676373,-0.00013784284833843894,0.0007553102081066452
2.234823974,-0.06983530572278167,0.03171393506405204,-0.004119929604189771,0.0017000205937709439,0.00013928691116401565,0.0003291831658288703
2.244823974,-0.1064035076407549,0.0024831801894813522,-0.014687245006363793,0.001691060849460186,4.57975437003806e-06,0.0007821148477645627
2.253823974,-0.09655771613254269,0.014598305734566858,-0.015086781457341807,0.001588960648180962,-0.0006193500797836606,0.0008926207193279169
2.263823974,-0.05953322182368107,0.04774509008831382,-0.005667059428426461,0.0016001604964006745,-0.00020769023834655483,0.0006044129328416074
2.272823974,-0.07279481025632395,0.034112077039309296,-0.0037368351328579677,0.00158590449204472,-2.5591801617913778e-05,0.0003167025367808084
2.282823974,-0.10738377432207222,-0.003916687595260057,-0.012447951715883785,0.0019784282031675058,-0.0003933755366971124,0.0005027079405636268
2.292823974,-0.08788641771864147,0.004171472691858705,0.12079253213223773,0.0018223658395429016,-0.0010356531612464193,0.0005893293940292318
2.301823974,-0.07576293024170008,0.022686242920541194,0.21401600074168806,0.008300751747156807,-0.0008659423234022776,-0.00011783435333778959
2.310823974,0.020246545982620198,0.1187031441916741,0.2147721933093435,0.016670730467999044,0.0027850453339942492,0.0023934983720702756
2.320823974,0.0997453082015072,0.4057316787550418,0.36906709139556826,0.033639222022227605,0.008142192313213215,0.0015419009348140273
2.329823974,-0.01655696942065521,0.7097520486712239,0.21106677846755703,0.055773229495968676,0.00819335482058663,3.4405503194461325e-05
2.338823974,-0.1793536517930117,1.1625392312554617,-0.20491433609509574,0.07029571652395447,0.005693445391780851,-0.0028431371934304174
2.348823974,-0.2996110208405435,1.9470170841059429,-0.07969205442877131,0.07288469751257069,0.001792816327032049,1.4532705209461942e-05
2.357823974,-0.2843669713438499,2.7400905949509475,0.4317468714031504,0.06151738365850643,-0.005108551440925294,-0.0008014531731111969
2.367823974,0.010983383305124522,3.142464720979193,-0.014209405109274847,0.04746541714390119,-0.011878784121482596,-0.003753088343203136
2.376823974,0.35971974011898333,3.38174523442911,-0.45466046772782265,0.018220843784724824,-0.00825478803579668,-0.00641783885822342
2.386823974,0.5051682274890711,3.1707575496236524,-0.28412293685895057,-0.010729259446770466,0.0035392400606714686,-0.008294949822618095
2.395823974,0.41183064723066826,2.9506436604093653,-0.015278924793477727,-0.029308268312013854,0.013583323392336547,-0.010224315825386333
2.405823974,0.10939416895283771,2.5952547197698355,-0.45553453277589356,-0.029463332032624714,0.02391910649013759,-0.00773094314482156
2.414823974,-0.3544647233654792,2.1778747885727974,-0.3578299141700891,-0.045387117359233814,0.024185913877776636,-0.004782583729863113
2.424823974,-0.8227077291975038,2.1128015182520485,0.260303738015299,-0.03450042831619003,0.008403434455919102,-0.0033869406277656335
2.433823974,-0.8968922747090251,1.8458788117420641,-0.30550043191914156,-0.02628776653959366,-0.007081467250891378,-0.004183386522900246
2.443823974,-0.6839200794873097,1.7770754629431806,0.056567555507120046,-0.03575534669599563,-0.021387465726458277,0.003916260046065288
2.452823974,-0.1562538274791385,1.8674909077906476,0.6827791070724818,-0.03245740934697855,-0.028448684084790843,-0.0012820968276835974
2.462823974,0.5908858924865117,1.5166168046201012,0.37563882119651476,-0.031918250329390746,-0.016088538413732405,0.004695084142359783
2.471823974,1.008653499109924,1.134432101718486,0.39126355761898735,-0.046428738782509124,0.0041688083258517375,0.0018825905288411481
2.480823974,1.0190907445122634,0.6138360802774756,-0.09583432094028363,-0.03953140798915628,0.02802664801364776,-0.0008640805109273354
2.490823974,0.1601225198565379,-0.39720427029391414,-0.5170404954119018,-0.03414859316955518,0.0398458929511118,-0.0006211120741662977
2.499823974,-1.1121486816051764,-1.2601101981706688,-0.4527259359025292,-0.005104396705037987,0.02226161017525071,-0.002287196415492891
2.509823974,-0.8902572513812509,-0.4240776107937103,-0.5038921934272762,0.005634337531504026,0.007799698294671679,0.014189413125238415
2.518823974,-0.08689068669877113,1.0157874551951622,-0.39958113220412844,0.008127980044435257,0.0007931035740863749,-0.0014408424591037645
2.528823974,-0.07662664105684586,1.5352581249614816,0.10818961174496902,-0.05292304698114948,0.003470186681493601,0.005833807287231677
2.537823974,-0.7562662310786654,0.41107626149402066,1.1196936962138582,-0.09705847284474724,-0.010709318240176761,-0.009252335209837861
2.547823974,-2.689835053894927,-3.7482216478210044,0.885795159959984,-0.07029315306520374,-0.06462717240314848,-0.005585875606364635
2.556823974,-1.7093922457815685,-5.426608921552368,-0.0068843414068692176,-0.05145760402798544,-0.10023089253231485,0.023077840177872764
2.566823974,2.746020938395145,-2.7514389199438787,-0.14552478775733818,0.002417507086320349,-0.07020975275015999,-0.0026556214794811895
2.575823974,4.65204196854852,-1.1689048311459345,-0.13449008750250135,0.026508366020560042,0.026018667613062495,-0.018055108990427393
2.585823974,2.71629636403519,-1.500473145238292,-0.6575268465866161,0.04799009187923813,0.11115054952924505,-0.033464667218499916
2.594823974,-1.2490266399810994,-2.2043795133181603,-0.7770135552338481,0.05847821763564206,0.10976904697516233,-0.03537679082722655
2.604823974,-3.1642370239729436,-0.9595760654243378,-0.3620946192185688,0.021750201893203206,0.05041761289404448,-0.0012284302789541904
2.613823974,-2.0276429355731347,1.0962641525059207,0.4424286953670796,-0.020678433854968238,-0.0172779418971214,-0.013074188846976635
2.622823974,-1.1733750164577286,0.6969338982022315,0.688601662668574,-0.05591350662824603,-0.04858684016551021,0.005478412634689055
2.632823974,-0.6734401134342615,-1.4662101807961976,0.06447624714329865,-0.062224664386591286,-0.06782026889878248,-0.006120964994885882
2.642823974,0.6940885039233289,-2.374615545655249,-0.06928371654820273,-0.028229862789280427,-0.04658598924666485,0.01393521418604274
2.651823974,2.3128614367308464,-1.40525858277355,0.22174802094677262,0.01994165728631417,0.004105052099457091,-0.006198303853352499
2.661823974,2.100470968479266,-0.33575072189643657,0.9174385771908374,0.05887152797562634,0.07251298426678945,-0.006814613013241359
2.670823974,-0.10014040016056552,-0.05711009867054673,0.829493411022544,0.09838918698557747,0.09660308205196712,-0.00572513170190739
2.680823974,-2.089937330013856,0.6558029902767799,0.37608821750813737,0.10505644893026017,0.06924692995385077,0.008412381496210427
2.689823974,-2.740958250787163,1.8418498307196667,-0.07663085414315676,0.12396327025419031,0.011668153355755136,0.020712959231739343
2.699823974,-2.2495808724505504,2.8595010761947433,-0.5015965503699451,0.11174426076899993,-0.04659608575547357,0.027635477949521835
2.708823974,-0.9626481803848173,3.6548213751709513,-0.5814469867151196,0.09132749446250452,-0.07535512977668389,0.03751965962382042
2.717823974,0.6702329752037639,4.117253867037711,-0.8989447065651118,0.05484721389065158,-0.06854565700338283,0.031783352960676914
2.727823974,1.6650089245117698,4.432082575002535,-0.733201256500166,-0.0011581795210784066,-0.03343697869835453,0.022143564863345934
2.736823974,1.6367297640013971,4.248303073633455,-0.3381950750178387,-0.049707075513677076,0.003508312801931901,0.010254593368102399
2.746823974,1.1073459079774084,3.529029956741386,-0.14159465266793309,-0.08976011798058589,0.0370115978282934,0.01576158769472362
2.756823974,0.5430049913536569,2.707294442690312,0.09220562056066495,-0.12000363589995412,0.05048242681003996,0.009430442260972666
2.765823974,-0.031334827047630576,1.831037465869551,0.334574104952012,-0.13018116396832147,0.049251246314441666,0.009105269616213222
2.774823974,-1.158719172846869,0.1879592378729626,0.5331025629291406,-0.10553930404176262,0.024675521151509155,0.003486695643675687
2.783823974,-2.6709090139703275,-2.186659466323884,0.2200313038211948,-0.054896172917290875,-0.024562328188170317,0.0073063741543360535
2.793823974,-1.191033319823324,-1.9234874201523013,-0.2178963282329271,-0.009280680371891493,-0.05770285412101207,0.033458087048510325
2.803823974,1.7136176464445663,-0.042382789062300724,-0.6556253614723473,0.04714233518955762,-0.045954107303268536,0.000985457320564474
2.812823974,2.446773225736788,1.0567633759006312,-0.8679364795519839,0.037525799858376965,0.01131326734061615,0.0006371685288053733
2.821823974,1.8483848354370398,2.4716969980178254,0.07759741455721011,-0.009819607715916803,0.058900861043963,-0.020169292849830964
2.831823974,0.390323931028504,3.100519436040787,1.5924159951390724,-0.09323624639307063,0.07843027222066554,-0.01583224952380664
2.840823974,-2.676037335975977,0.04592143296982085,2.1763074441974486,-0.10819698236802888,0.022263682878579688,-0.020587626177090465
2.850823974,-5.823761980120963,-6.320387571542062,0.6371877744464661,-0.053904983725415676,-0.09433245578863204,0.0052596834153268894
2.859823974,-1.8576185920564794,-6.036147309637693,-0.19087716936660162,0.02100860637932832,-0.13610418551380585,0.04461549458725023
2.869823974,4.235684471410198,-1.4066736770292037,-0.8834753782662474,0.1756043291747273,-0.08715397941235856,-0.014071644185160588
2.878823974,4.484912926627864,0.6345285070830888,-1.6655101360560922,0.1892282995871838,0.013266420807814453,-0.015741106810860387
2.888823974,2.6493898850888966,3.1534134292610942,-1.0578745802652043,0.1460154197237367,0.10298843397674526,-0.0328599416835027
2.897823974,0.2877581666844811,5.070349145627115,-0.4851564788204995,0.04670772935164639,0.1337773542466384,-0.01328429116618821
2.907823974,-1.5362903679058888,5.895820748681205,0.49358522847634156,-0.11257783268133965,0.11025618209115338,-0.006315051188942683
2.916823974,-2.300099049928946,4.26275795833703,0.7563286475832017,-0.2281584654364824,0.054658150639539695,-0.002310836484186161
2.926823974,-5.189792194136731,-1.7935851424999227,-0.2961136239456025,-0.20207278832269693,-0.06653524372551053,-0.006503836516078275
2.936823974,-4.43344502072144,-6.280606184567023,-1.3043099019221522,-0.13087165097000908,-0.15884410949205557,0.033707308935214356
2.945823974,1.9174860196257433,-3.338144005257243,-0.7446871513544003,-0.006136560679000803,-0.14869708988818653,0.021011307600634764
2.954823974,5.153209589318098,0.4397530288716831,0.2901395654425268,0.05110087580336947,-0.0497010523337509,-0.007168742690817621
2.964823974,4.955174073138155,2.016936267929042,1.2295121876102109,0.013541890110378384,0.07924433617754961,-0.017632558282237382
2.973823974,3.0157869457960094,2.402331453650983,2.5175159775885243,-0.0705097163058748,0.16149326289746288,-0.013284992571446236
2.982823974,-3.2416826991184893,-2.151256451671054,1.9936562455929687,-0.027504792430232544,0.10953063156677029,-0.035232920542910606
2.993823974,-7.006307177584373,-7.824826077469752,-0.7901932833670813,0.04916991967701632,-0.020452120031366573,0.025722178771573734
3.002823974,-2.1056461479608286,-3.837481814021636,-1.2694507727835815,0.15367802628576896,-0.09505728785506981,0.01501393247005365
3.011823974,2.0195109541325382,1.7899269871486423,-1.146500431177306,0.21741030076704684,-0.10042628842533152,-0.020350492194174508
3.021823974,2.287656182641949,3.696602060333361,-1.5379986432965254,0.157048457876497,-0.04908461336343291,-0.04554372859783091
3.030823974,1.7419765503762175,5.256043795461016,-0.6075420522632067,0.04234016315826893,-0.0055817865392900476,-0.04178276290233204
3.040823974,1.406648288462661,5.469105898341647,0.18591151154590713,-0.10270491903687887,0.023927149266074033,-0.056691920691816465
3.049823974,1.2767174074264007,3.6969147392227297,-0.19994064959317595,-0.21033234506296342,0.0482904212098755,-0.05406586929649211
3.058823974,1.4191149090799797,1.4262562927816351,-0.7454800086312388,-0.2566134679894591,0.07136065141985128,-0.05725380982073115
3.068823974,-0.18084508060854013,-1.9841627040380805,-0.6028185796306403,-0.19409616948141403,0.05099520750099351,-0.08835316673620004
3.078823974,-3.150919870880664,-5.307324335156517,0.01564450117831853,-0.10716316500444299,-0.01536369217718504,-0.07763819990897433
3.087823974,-1.074540398029781,-3.1889063797969683,1.70325942133118,-0.047367837398255716,-0.05415478428804784,-0.0629675800066654
3.096823974,2.7373844110075627,-0.023759442998782715,2.6603991908373263,-0.012339252558262325,-0.03295023995933842,-0.08914930847180906
3.106823974,2.8069682337263075,-1.2896214455908073,1.5623401144212925,0.007244238865796084,0.023901399706017255,-0.11399671306642145
3.115823974,-0.04845002152483681,-4.377291169713076,-0.28621023475592855,0.06783598614894815,0.03896305048187693,-0.13120492747547696
3.125823974,-0.7792578823836706,-3.402403164477489,-1.429170755872157,0.13106170600657985,0.02495192496687918,-0.115306166256094
3.135823974,0.9318284518124682,0.6494460745756616,-1.3281572727106836,0.1803762933266507,0.013137217276730253,-0.14728866710772362
3.143823974,1.02728073886544,3.068579475443074,-1.130089185481344,0.13378366047673806,0.020306761550320407,-0.15574556702069084
3.153823974,0.781191398752824,4.797202084803583,-0.4593847943609036,0.020468092378073583,0.026446301687866144,-0.17664314314370277
3.163823974,0.5028820714055022,4.678624986299656,-0.13827054085054394,-0.1183925899261991,0.023279313105374958,-0.18640001288767222
3.172823974,0.23679739098264252,2.8465077744126868,-0.30865630655713744,-0.20629420464249626,0.011012017967055717,-0.20097093469716562
3.181823974,-0.271853386812482,-0.20802095402985618,-0.41337970503678484,-0.21557909897131916,-0.017611192368464763,-0.2107732794654214
3.191823974,-1.18352882917782,-3.80514565452771,-0.09771679127386423,-0.14630972324050717,-0.06503995585314092,-0.2213147033833572
3.200823974,0.8287128126243519,-4.012750424501904,1.151444538108847,-0.09962771779751217,-0.06670768240996909,-0.2088961412818193
3.210823974,4.5193078025452955,-2.578430566550306,2.4959094570393283,-0.014543264701617084,-0.006488613489096386,-0.2413453917999662
3.219823974,2.712234493627884,-4.362108662632704,1.6075337094869855,0.061838541179814424,0.057557179426269395,-0.2755678761113754
3.229823974,-0.5420646493897177,-4.817763319909571,-0.46488280231633405,0.14133611037997312,0.07996796463526205,-0.27200174112352876
3.238823974,-0.3762094239256013,-1.3253858691366645,-1.2316343027214924,0.1944459274164289,0.04959113000042584,-0.2845822035400469
3.248823974,0.18578002829710571,2.348204908618759,-1.2760393543903628,0.1892199118767784,0.008445649653922648,-0.31070509703759475
3.257823974,0.5671895393129515,4.389873824251826,-1.1093065944961404,0.09736934116983434,0.005399381382443959,-0.3151980080760923
3.267823974,0.7913540271572688,5.465392542369654,-0.08047814054874904,-0.04956828775535631,0.014658546152255576,-0.3259718026063507
3.276823974,0.6638831127257181,4.416988396702354,-0.07239756729225458,-0.16123330030845598,0.021747802940885082,-0.3349907294026393
3.286823974,0.4289198778982823,1.7760401585034808,-0.9902113073218016,-0.22542717396257106,0.014441089621456769,-0.34023661953383927
3.295823974,-0.5465765181981045,-1.276575004120927,-0.49523005805306775,-0.21058780530930243,-0.01253998083495004,-0.35638795595316586
3.305823974,-1.3379068202026012,-4.148576743245832,0.34652886227245866,-0.12903099500905094,-0.057625081286055535,-0.3580480219289694
3.314823974,0.9994305759782734,-3.6263924457187002,1.8374020811225753,-0.08739925257942245,-0.05390735366676998,-0.3477965228530369
3.323823974,3.929610514791208,-2.7554254299870413,2.8598866297353265,-0.006216853915745226,0.0026624218783907216,-0.36906977713962247
3.333823974,2.059526948979024,-5.147091480965996,0.6364746859492556,0.08014169649908749,0.06751825782616526,-0.3960299566024532
3.343823974,-0.4139621493898888,-4.541262867896322,-1.048301400530251,0.15437071530451998,0.08391239429153838,-0.3785080842875855
3.352823974,0.006593226557095731,-0.5312256934396755,-1.2967077188086347,0.22307546092016212,0.052013240002477285,-0.40379160945212544
3.362823974,0.27432830588317453,3.080511009382613,-0.9655765006181581,0.1845205046556786,0.03247896007377837,-0.40770289435993556
3.371823974,0.27845000743152426,5.150123674588238,-0.6256792660698336,0.08148281873846452,0.027106732171375693,-0.4206186503008186
3.381823974,0.24524357125543356,5.590082279667356,-0.5229521977784589,-0.07772063945166294,0.031198049383526143,-0.41633465131985214
3.390823974,0.05567180441737398,4.05584669365121,-0.6296125796842347,-0.19817018757551338,0.027251554846701102,-0.429503586127999
3.400823974,-0.2327601328976526,1.261856573085374,-0.8543048371754487,-0.2476795109589653,0.01103347405328772,-0.4227576706883415
3.409823974,-1.7285155959201681,-2.663716206009083,-0.33956410180538615,-0.1853208058181189,-0.04325514003898915,-0.43970010698361917
3.418823974,-1.8107426031060745,-5.278498830800677,1.6492435918601522,-0.13185633518607429,-0.08227167827259899,-0.4081219225452313
3.428823974,2.944914944197598,-4.707887109528542,3.020112479595941,-0.020846551745796117,-0.029237505830311986,-0.39750369616741504
3.437823974,4.365787782997154,-4.399952624562349,1.694764197698178,0.06764894290578236,0.05942281775171262,-0.438573221273733
3.447823974,1.1627691440259609,-3.7999853888651227,-0.5784594989407513,0.1495121850568894,0.13085690343054815,-0.4337156011035173
3.457823974,-0.47591104358336767,-0.703899003172074,-1.6193436884206291,0.20228721353135484,0.11824244422845712,-0.44017579856745226
3.466823974,-1.6066243485885643,2.4381147924428404,-1.501191647330783,0.1819330828122172,0.06795047007167651,-0.44511149346265855
3.475823974,-2.0349184559192035,4.603443885704973,-0.7615555060977495,0.08496521981530883,0.004582860033470066,-0.4543536104604168
3.485823974,-1.197058798002771,5.431903203419869,-0.006319106597202325,-0.054937506565574556,-0.03200109922885349,-0.4316259672358961
3.494823974,0.2116028778841292,4.118934952957662,-0.1782872727070412,-0.17905738022232773,-0.041730515669774766,-0.448839081776939
3.504823974,1.3570462895302935,1.4434350034804155,-0.7692969832237284,-0.2389486456833278,-0.017826589858173193,-0.4306737428263278
3.513823974,1.0206154721796417,-1.7344037603148132,-0.21977025284781931,-0.19555044037936872,-0.008717750478416964,-0.4662099947841266
3.523823974,-0.7506399539702212,-5.387282156000737,1.1326848743967484,-0.09910323391535081,-0.02006121794879531,-0.44501281552601357
3.532823974,0.3770941348823068,-5.177539857002624,2.024102240900615,-0.027175907598227828,-0.004972531238990123,-0.4250312614799104
3.542823974,3.1266107700032597,-2.5366716678806616,1.475788446816607,0.05900823387770634,0.05933013094738022,-0.4391209422926327
3.551823974,2.149401021954637,-2.1489632861515493,-0.47263284418437257,0.11247116450067493,0.12116810438954463,-0.4530430763901727
3.561823974,-0.2943994767617353,-1.2036978653165127,-1.3563400278397166,0.13454754342829567,0.1304453598840241,-0.44779478823551927
3.570823974,-1.5848516458418815,1.3333672062891528,-1.311713507448304,0.14963700185026568,0.08308780938668014,-0.4516931048753484
3.579823974,-2.0219478094372554,3.5016179062821395,-0.6513328264169578,0.07949190385203837,0.03156762974892034,-0.4381770889852907
3.589823974,-1.3732221232118558,4.606152857833949,0.10604210727313232,-0.03245359953633836,-0.008209504801905965,-0.43902997648235553
3.598823974,-0.37534714187916995,3.655810224298448,-0.24998805273355706,-0.13650474661438758,-0.016441606279976064,-0.43182815447631484
3.608823974,0.27227734360699307,1.4362496953923787,-0.6423005399696575,-0.1944882722491698,-0.012816572046493084,-0.4414058926317541
3.617823974,-0.170569246009617,-1.4087275670562576,-0.21383162778930337,-0.15764998078104658,-0.026815365040447754,-0.44504261168267434
3.627823974,-0.8243806654185052,-3.9768509799711267,1.2052051960907126,-0.09379931501439824,-0.036664890107599914,-0.42549618080456697
3.636823974,0.3112626848246318,-4.062441850297122,2.233597946923925,-0.022912366341610313,-0.016895128635633274,-0.4200369332567284
3.646823974,1.2297634554064711,-3.8174588733370918,1.3616740143558805,0.06065203653396471,0.027350055156049297,-0.4147933177675637
3.655823974,1.1751147134661808,-3.033109757143957,-0.44114364310591897,0.11830075210075616,0.07356201682505488,-0.4013440364099808
3.665823974,0.9780701958587992,-0.5360520263907471,-1.8384478496291101,0.19142632559139958,0.09125659608157674,-0.40219350746380944
3.674823974,-0.0032364939699970063,2.3372417140188846,-1.6532502814011742,0.16486249626467125,0.10269561428759377,-0.3944042309335911
3.684823974,-1.4345945119122354,4.903179650332691,-0.21727662239144932,0.060864630910854305,0.09162052803339556,-0.39181268055899865
3.693823974,-2.6874989934661175,5.429985702515514,0.6389925265531736,-0.0834279741363265,0.045877787115450326,-0.3712955350922508
3.702823974,-2.6970668593802727,3.574836258322521,0.4282184003383377,-0.18813308077698315,-0.007129507914179022,-0.3474160137213878
3.712823974,-2.1834138471416957,-0.5089401747667126,-0.7586036236912674,-0.1899922523351918,-0.06104277811621582,-0.32577483641780175
3.721823974,-1.4238756342056076,-3.783419220268113,-1.2593066255945093,-0.13611196583017815,-0.07990573372752868,-0.30905677264320275
3.731823974,1.4157853268368248,-2.6709501808376395,-0.008954937454567982,-0.06625103524174385,-0.03979176878189948,-0.2929344015589198
3.740823974,3.6259726758566173,-0.43071203256610896,1.7114045556867477,-0.018596900418502565,0.048849814981866205,-0.30497233255994793
3.750823974,0.7482964195021818,-2.0938564151299186,1.7950044226330575,0.046248411581800285,0.1111067477037907,-0.3062369972897138
3.760823974,-4.050196518266158,-4.693131434626579,0.06585718373260735,0.09329009194034188,0.08336227592811046,-0.27114223517144775
3.769823974,-3.6217122493522846,-2.113468377981573,-0.46726855658038424,0.12785929516061117,0.024948183111429503,-0.23727892458058836
3.779823974,-0.8914467666680802,2.173404865000101,-0.27341467033287525,0.13753971920678695,-0.01730975779989337,-0.24015019302463722
3.788823974,-0.091783563922167,3.5369991458371772,-0.4327067801826426,0.05710103902924553,-0.008656405188642847,-0.22514424469554742
3.797823974,0.264873421142652,3.644002307050442,-0.2354708215995611,-0.04666925017690436,0.016430987111931916,-0.21539466203248256
3.807823974,0.07666527518212728,2.226148822513683,-0.46673970126613035,-0.11959973721663594,0.03893098753107967,-0.19733878163054702
3.816823974,-1.2717439273979156,-0.5685352658935966,-0.9880361475086592,-0.098746990459414,0.026284989808891074,-0.18651385565558273
3.826823974,-2.8033263249299556,-2.8693996122988166,-0.904965313655052,-0.057480220066757425,-0.010295685059778573,-0.1625454297599441
3.836823974,-1.3290939756310942,-1.233693526288155,0.5154122876569756,-0.0208191500208283,-0.029666435047933343,-0.13467698573354572
3.844823974,0.9717827298060482,0.8217854476556781,1.7916885683961814,-0.019064085413405974,-0.008484722083837031,-0.1347330722379868
3.854823974,0.43634155602898406,-0.558106884153319,1.8502772841976525,-0.007827763257239865,0.021852681977913367,-0.12676099484643383
3.863823974,-2.319035668980935,-4.137308893808105,0.25900527892859765,0.03950668370260984,0.016657007525842482,-0.11487655989187888
3.873823974,-2.2341676359896536,-3.945668644696298,-1.3101258362556751,0.09984744796841245,0.0014708785813189328,-0.0729114208897245
3.882823974,0.38596407114720055,0.016615657291580432,-1.459006630536436,0.17018775057902233,0.0026458237763191967,-0.08066142662176554
3.893823974,0.9657327182408619,3.2087216506828633,-0.8905802319693216,0.1331187214554632,0.038822187351637984,-0.0704697346824461
3.901823974,0.2796404277091654,5.161912100847463,0.2799181680829798,0.028964385226440088,0.06317950110001742,-0.06728544725962078
3.911823974,-0.8690241222344901,5.020049505208333,1.4369125623773544,-0.132560783968677,0.06502136633973102,-0.052256925582835796
3.921823974,-3.4381855098108174,0.2497886164231862,1.1642452117352469,-0.1690057803562221,-0.007992196120171333,-0.0452042570912316
3.930823974,-5.631071991849725,-6.694568297786771,-0.9224948594467026,-0.09792173090037375,-0.10235138945365804,-0.009067367138245812
3.939823974,-1.3004809690469599,-6.353947010160271,-1.5817119238796142,0.008129773601976226,-0.12810434174785984,0.026171195448696474
3.949823974,4.171984611175443,-0.7887782880808821,-0.3626811530349393,0.14578890127184052,-0.059285785185360936,-0.011187122193523611
3.958823974,4.154336702992454,2.153142359684659,0.4248734011478861,0.12978898726264138,0.051829694111115744,-0.016247833508592643
3.968823974,2.2419001670063596,3.604400652221168,1.0288315383809437,0.03860287275854937,0.1385067943271436,-0.01564230822355288
3.977823974,-0.37718230829383337,2.9630602946883893,1.1625910228109537,-0.061218784059972525,0.15095257875026608,0.0017840087040159863
3.987823974,-4.764933310834742,-1.5340135214171833,0.1539325000365275,-0.05422992605589125,0.06345460203042194,0.014203821303078994
3.996823974,-5.355076980971784,-4.809883602967721,-1.7248561045561872,0.0020475922702103515,-0.024827167778793856,0.062414807703739965
4.006823974,-0.8914679761285698,-1.7918698820738301,-1.642807685143524,0.0831046140634378,-0.05159561757478063,0.06632252964279182
4.015823974,1.6072631963845092,2.1693772515015497,-0.5469170900107112,0.10820487172074361,-0.022942380518639463,0.05882371724556394
4.025823974,1.4544311702813335,4.164473328012094,0.8964177895036864,-0.001813458218430414,0.03849886910682462,0.060525909096031824
4.034823974,0.11039748682348202,4.036620918807038,2.2883116346291006,-0.11180145128577701,0.057589990368551024,0.06346764086646232
4.044823974,-3.9157771310967404,-1.5081821645889721,1.2193796517114825,-0.11348538683505853,-0.0101585486615017,0.06363673794495223
4.053823974,-6.037366772735467,-7.388245789590189,-1.0616907397383406,-0.03245301819346204,-0.10409796941917239,0.10868886090892321
4.062823974,-0.8481471156146841,-4.814049403507487,-1.409390925580308,0.06549577250047854,-0.12096088043622598,0.1422580043634292
4.072823974,3.720321593446816,0.6388120167547388,-0.966953102001878,0.18428869674479667,-0.05783982394340564,0.10391113394742413
4.081823974,3.309891585926211,3.0331552976099907,-0.22693912875302158,0.11018783754150333,0.050150651859287396,0.12893453402973618
4.091823974,1.5064256175681983,4.711171176855433,1.2246372156239262,0.003111196704354639,0.12579183613736128,0.13591502154262067
4.100823974,-1.0236075617033304,3.6064978074450917,0.6611433297988718,-0.10815658328035022,0.13185076917621288,0.14790701159306627
4.110823974,-4.980176514964382,-1.1839393769188409,-0.2961262511728988,-0.09976447065219304,0.036845725756119115,0.166454507443622
4.119823974,-5.765860491101636,-4.926858063544911,-1.8238931010975654,-0.041588924659870484,-0.05774146507083476,0.21013061979819958
4.129823974,-1.1508286186235597,-1.8688658269000253,-1.310216707475854,0.032148350391234815,-0.08219806791546315,0.2120418927876429
4.138823974,1.8398252684053007,1.9432592248529488,0.22127152382299675,0.05991402930978371,-0.05476890298650376,0.1956926979748779
4.148823974,1.8270499773687323,3.0055968830564757,1.5029184571306327,-0.039528442051210935,0.011304548785427658,0.19077683926334038
4.157823974,-0.011417605949834264,1.6701961708725777,2.850507438409765,-0.1208891016686092,0.027334775865444475,0.19501470715055463
4.167823974,-3.5390299641491683,-4.632927785091126,0.4154290601954536,-0.036849634128490356,-0.04889710234753065,0.18581760580613982
4.176823974,-2.4973540599225768,-6.7555661771050355,-1.8549868681659762,0.013030146983498475,-0.08123403605478385,0.25905615027058937
4.185823974,1.8731768761120868,-1.872166936063188,-1.7035395802434636,0.16628439133845435,-0.04425943028716983,0.22850163875882767
4.195823974,2.5261731047551073,2.405062638342373,-0.5486620314126385,0.1516952545117776,0.04399547610575376,0.2399028260625978
4.205823974,0.9326819098669847,4.545739920012991,0.28982463393274693,0.06825099035549924,0.0987480478266088,0.23422417318625
4.215823974,-1.4268876460770952,4.841381023486653,0.6274535775081993,-0.08333726520167148,0.09929114413727713,0.2642491942712877
4.224823974,-4.1918546690940985,2.243140537051904,1.2820876188982897,-0.15887443617875796,0.021655997710715736,0.2598337739035307
4.233823974,-5.510977683168202,-3.367255933370294,-0.6190768307063572,-0.11424257372205812,-0.0939428635978189,0.30493008811664013
4.243823974,-1.8434759114308064,-4.2623415732578795,-1.36641036860111,-0.07480878358886804,-0.1252914186003766,0.330336612279246
4.252823974,2.382930352428019,-0.8948028035411503,0.18740021848440042,0.013064188514382794,-0.08203035978411621,0.3027039876353025
4.262823974,3.128642668981272,0.5008975904311518,1.4086498021020422,-0.011973579517492153,0.00680031879071129,0.3018545250433559
4.271823974,0.9541478292504657,-1.0268024203449828,1.611724426968166,0.01697623450810406,0.043192309517993493,0.2751933112778063
4.281823974,-2.3078740323498708,-4.049073812480275,-0.2779973122882114,0.0619645388688859,0.021030608907577443,0.2995184195673531
4.290823974,-1.500246671762288,-2.4150689292463796,-0.9622841923104596,0.10195915943751672,0.00014238152986218887,0.32400906088107684
4.299823974,0.486224579404881,1.1602304538087846,-0.843322187020942,0.1459515906706929,0.010756777704372718,0.30447046656079296
4.309823974,-0.1572811596871454,2.8458220913065753,-0.5069803596746546,0.07938833516829628,0.030543898976751808,0.3131256670361857
4.318823974,-1.019209034058614,3.722818686951976,0.18228527345202641,-0.013215252095385075,0.014898812622187408,0.31442714886422274
4.328823974,-1.2106824621805412,2.725513115879154,-0.19303795221565345,-0.10470392213404556,-0.017344872497534462,0.3194169189425356
4.337823974,-1.0717667354317508,0.4557707650891439,-0.9507466254079522,-0.11540154173208578,-0.03578514583923736,0.32335900717479327
4.347823974,-1.1608560242873074,-1.7008522019022783,-1.1070000251060343,-0.07937140169686692,-0.05009752694169691,0.3192890007928736
4.356823974,-0.43911656090141377,-1.1096238443632287,0.4685467937469928,-0.06244033408042319,-0.046921034740208735,0.32740726205263077
4.366823974,-0.05275265007855551,-0.583115183786661,2.589083752294598,-0.03728958541371089,-0.05477725493214651,0.30085829866456004
4.375823974,-0.9358714013821955,-3.0726984023493995,2.311129666988373,-0.02441561204036733,-0.08978199864463085,0.30400801788534143
4.385823974,0.902776464354685,-4.420219035460308,0.3136921793160325,0.015646596380703506,-0.09451628468678888,0.3035416165647818
4.394823974,4.283770681427435,-3.0208392405514246,-1.229214298589579,0.09955789759213768,-0.025067136237445116,0.28199789278619264
4.404823974,4.242196600422827,-0.986084091830765,-1.5699663067561178,0.17816222412011662,0.10806689800890121,0.25553744077711776
4.414823974,0.703065854436125,1.5560454512342776,-1.0431034555358543,0.18542922899623368,0.16366128581324374,0.23831810494112585
4.423823974,-2.7472174070137876,4.0789230611663765,-0.05408106665456056,0.09813590489227111,0.11137689536302511,0.2479103944831434
4.432823974,-4.0770019786046765,4.9905289953422995,0.6652011877527283,-0.03138587887817577,0.008448116664111244,0.25157884449756296
4.442823974,-3.039156023867843,3.2974038816846516,-0.1413384881391749,-0.14976258244140328,-0.09769539080122966,0.249051826351597
4.451823974,-0.8708774766595941,0.6441319870366955,-0.7798141369774826,-0.18111992308835156,-0.13757224878102597,0.253385669970848
4.460823974,0.7750732060316832,-2.2113417544523193,-0.7244485822098736,-0.13033000578611742,-0.13176665181029507,0.2330752265267863
4.470823974,1.7138914003068213,-3.360860185755409,0.38934377446904295,-0.07350020059535385,-0.09511056505945112,0.21714122613555997
4.479823974,2.689344865300264,-2.5945209999700483,1.5697580311956347,-0.019018741051262406,-0.05345244422595309,0.1957879755155571
4.489823974,2.9408456222843076,-2.5133900958539668,1.3194942897688482,0.03457926989736946,-0.006491233854592823,0.1645377347324715
4.498823974,2.3292680443116174,-2.6627071910447295,0.22315191377052873,0.0751433746946091,0.03655711415174857,0.15126676212665588
4.506387979,1.7513182981885003,-1.5042962361293801,-0.5471798162184098,0.11074039626722465,0.07490706373326034,0.14062888572568336
4.515387979,0.2585809365808841,0.39305126503435434,-0.7921994244904909,0.13239932869212293,0.0958362086338986,0.12431748845363827
4.525387979,-1.8672052613086259,2.074292707457825,-0.4221939343900503,0.10008778079650518,0.0651090480718454,0.11885400780474992
4.534387979,-2.7884314632024716,2.9102419096564205,-0.06559082589961339,0.030544947222172433,-0.0046913824493111985,0.11804651573226038
4.544387979,-1.951776547181948,2.464539962065038,-0.19805061028029733,-0.050720416745792814,-0.08118575381184856,0.11531492285742359
4.553387979,0.2344147792466308,1.077246147661328,-0.6886154332265924,-0.09217031357740185,-0.1125687591296452,0.11136479953617856
4.563387979,2.573308444002633,-0.26190960436751526,-0.966772352977317,-0.0936889789836992,-0.0794383446994858,0.0992414111965113
4.572387979,3.492832464897967,-0.7429948400263587,-0.25558872575130664,-0.07451800166403735,-0.00866450489306011,0.08055840910998394
4.582387979,1.45377397725624,-1.8238785825135582,1.3571823173156887,-0.025498735354773646,0.03966931184436964,0.05296171425463269
4.591387979,-2.0343328181324245,-3.9634764280599244,2.0269674318952857,0.024446686379009618,0.019733362742328113,0.04696251921520521
4.600387979,-1.7028548125737002,-3.648194730596891,1.3888204598985454,0.05302127294101028,-0.02439873908393984,0.06694988600225855
4.610387979,1.3806856240210579,-1.1683176566284839,-0.27257699242133954,0.10993550258465117,-0.039111625500893664,0.04752530210838769
4.619387979,2.548445324738178,0.3595890387872851,-1.7459692098010395,0.14008189947185884,-0.0007443192068503405,0.02332482164262662
4.629387979,1.63679148217954,2.050048519141966,-1.7728712020237194,0.11896724903429517,0.056819898060487206,0.011109639822356722
4.639387979,-0.28984527807230415,3.939833007051041,-0.5219311650943536,0.040624873179856996,0.07372435178881306,0.0042923456261512935
4.648387979,-1.8713356588510834,4.417917213606065,0.627950598867272,-0.06921585176544337,0.043477441082144734,0.010082301997591976
4.657387979,-2.9480414462963713,2.0940440936498637,1.0952404160448523,-0.150710031282835,-0.022576775566479555,0.0179422954506275
4.667387979,-3.943571040057975,-3.4180247210957226,0.03657285939751194,-0.1232410408585012,-0.11679006902097358,0.023378279027155707
4.677387979,-0.5486767323084137,-4.870067844749312,-0.9801763472100087,-0.05459253936772543,-0.1524838505696435,0.05293547063288569
4.686387979,4.446029804280108,-1.7229472116417506,-0.71679452594118,0.056478727994795794,-0.09486829191944032,0.02865243692999148
4.695387979,5.106129664101767,0.6897166266058248,0.01605998116234226,0.08824404938865915,0.02555075588503663,0.014432675772195824
4.705387979,3.225851712829587,2.3000754928467004,1.0294439611181183,0.038983808679794604,0.1322578643855184,-0.003804097772048192
4.714387979,-1.1098244665576527,1.6117899955708237,1.9650750767220222,-0.032124389630468486,0.15235377144704632,0.0002336791675039921
4.724387979,-5.714434007073083,-3.5846846387875755,0.933922204848685,-0.003302812892741633,0.034575026904338106,-0.0042274334379891
4.733387979,-4.466901746523895,-5.321991348537563,-1.1442200291027276,0.03393161859639097,-0.06837841753871243,0.05124950176314262
4.743387979,0.4498562836825044,-0.8281515006176512,-1.4911579613228765,0.1446134174408524,-0.09956944456930004,0.023125704099523633
4.752387979,2.701890724949979,2.6603864473099623,-1.189710085791215,0.16485465783245756,-0.06026702549793875,0.00894417198036634
4.762387979,2.06599569620751,4.563279664724003,-0.5862770152446768,0.07231462422237118,0.0064878654402887965,-0.0159126984120623
4.771387979,0.707195971038734,5.093534384958737,0.9363298060852492,-0.07338556853503075,0.041213174581861994,0.004361187514354818
4.780387979,0.1864583669946073,3.526623435991568,1.4234896088943363,-0.19212467086464002,0.04612503441860251,-0.001470905193083761
4.791387979,-2.95834044777776,-2.902176123573942,0.270101704140243,-0.17306982493164047,-0.004262882415690636,0.004064113343908679
4.799387979,-4.308114314125936,-8.12624304444073,-1.5374532493765982,-0.05884135565573288,-0.08312507212351229,0.01284894982178715
4.809387979,0.9399296832307373,-4.524299980151689,-1.0119694287833956,0.06440482490592818,-0.08477913646235702,0.06172957186247386
4.818387979,4.173716840065496,1.1844226433104863,0.19669444643125958,0.1838444327847631,-0.03236262857971213,-0.0023998640642508627
4.828387979,3.139562460784026,3.4378294721734126,0.7353458101813433,0.08286490110541546,0.06769117297264603,0.012345080225302769
4.837387979,1.0197546520287313,4.155300842050749,2.2264921649767793,-0.05011766236413569,0.11419522114291258,-0.0063313788360140335
4.847387979,-3.049659506197713,0.49226555034027675,1.6816555793663441,-0.11462965738129766,0.07456109520317379,-0.01709642366463703
4.856387979,-5.326053938482866,-5.544990451212495,-1.4378503447244642,-0.03296029765159548,-0.04213584050859884,0.007163858764386878
4.866387979,-1.1264916509487393,-3.9582304654462215,-2.1688849828252517,0.02802364531018048,-0.0874701813012732,0.03594047835691117
4.875387979,2.8174536835678348,0.8691240478264863,-1.2221823274819181,0.15774704550122842,-0.06955863929437578,0.005574294590230914
4.885387979,2.9881440358288094,3.320369558555671,0.006473009150185172,0.06824931033157418,0.01655410115298509,0.0035661539547864954
4.894387979,1.9161016655152332,4.552416918918045,1.9348745298361643,-0.03824748498911183,0.07752802603324092,0.0038246136917377553
4.904387979,-0.6635379646501245,1.8493182821700223,1.5791961866731254,-0.13519992717353174,0.0884837580137954,-0.00613982704815785
4.913387979,-4.725416605306669,-4.869306584507641,-0.5660244048822543,-0.05544237538504891,-0.0006071518042569286,-0.005272245346705416
4.923387979,-3.5049230390158717,-5.953702666378046,-1.9915678076254921,0.0002907942064497482,-0.07871693708152427,0.052066811246038076
4.932387979,1.5428757541139049,-0.49268899472283006,-1.5940707962203253,0.15583330139402682,-0.0912213612860359,0.017502336265841092
4.942387979,3.086206455108726,3.3681417757901726,0.1421232645455738,0.10333969531699717,-0.01726385626059234,0.013620892026859625
4.951387979,2.4638487581737034,5.054782311017285,1.776483077791829,0.008539454466091815,0.05498901106565903,-0.009118379715636225
4.960387979,0.5754043169175385,3.6379816186089577,1.5796532262332346,-0.13995703270972776,0.09157393415129772,-0.0013530502422054859
4.970387979,-4.31739611367564,-3.45240004206447,0.18288821456549637,-0.10362396462033195,-0.0011026028793976509,-0.02746798761322846
4.980387979,-4.493781643704589,-7.731925647125231,-1.708565780997477,-0.032122324732792175,-0.09506569874254209,0.04771606151259297
4.989387979,1.573610507220961,-2.9049662908702465,-1.3174248969838547,0.1278507044896671,-0.10497714608082052,0.028749183289657077
4.998387979,3.742407501984651,1.648142208943951,-0.4692556926931517,0.17975706251796342,-0.03851911647727785,0.0029962247597170627
5.008387979,2.6929242392884434,3.9285302391149384,0.43806453497981507,0.10503777093321286,0.048690482515781876,-0.0013357723892894928
5.017387979,1.3842322398771567,4.783101772042562,1.5929169840845439,-0.03365317982320638,0.10055504485031941,0.00797790011097174
5.027387979,-0.26951488018925196,2.7408008212452026,1.6722342960133907,-0.16764297790229332,0.10419817223954306,-0.0037799659711727487
5.036387979,-4.1713096906654314,-3.883715884200786,-0.8744682664598502,-0.10069044595160602,0.01870968153251812,-0.007813094521276643
5.046387979,-3.9532982636073037,-6.584677136037279,-2.355844449774149,-0.03377896769994808,-0.05107560638439501,0.047247083009132204
5.055387979,1.2229172522756384,-1.6822602420669919,-1.5065451891732746,0.11452632678919114,-0.056725206924459565,0.02532925838802757
5.065387979,2.9033027028347873,2.8792373754985325,0.5124069833077817,0.09959487453747905,0.004630369683325819,0.01839509019616668
5.074387979,2.177560584028336,4.566614172269852,2.0073351703626527,0.011226309932227733,0.06559150888549518,-0.0028150531887355763
5.084387979,0.17445521919176019,2.8714716240003364,2.3208193947426063,-0.12757808343394111,0.08763826753965484,0.007262019900848642
5.093387979,-4.517994748306179,-4.237530160463208,0.6180197197542749,-0.07548475557567702,-0.00047701245965477623,-0.023480281367340514
5.102387979,-4.473543425006798,-7.963711946899015,-1.5228165625074215,-0.009413379541446722,-0.08374271355406718,0.05245234991293657
5.113387979,1.8173396816849736,-2.7609107318391346,-1.2917767514273175,0.17530600761566223,-0.09774829470332218,0.014725614262628715
5.122387979,3.7297723641720815,1.8077004296260797,-0.8545667830855074,0.21377998495855616,-0.018353232453950756,0.003663639739245412
5.131387979,2.4059557515556134,4.279265021631519,-0.20694182578266385,0.14531317261615637,0.053531086995096795,-0.010848199875568246
5.141387979,0.8682858758609476,5.554297503580697,0.7715981338270447,-0.003799683613418512,0.09563342219818259,0.0042709122553395
5.150387979,-0.299961174942918,4.3558677135661465,0.7601492319093537,-0.1488872347546286,0.095852457335429,9.965953511974039e-05
5.159387979,-2.3266770199907607,0.1506762822749326,0.1329636480497655,-0.18370708271297248,0.056844595341141634,0.003616475506401024
5.170387979,-4.562264039096699,-5.745938984064512,-1.627484540124958,-0.07922429148297151,-0.04285935133730132,0.011877814026281434
5.178387979,-1.4878427962728549,-4.412373953319129,-1.2959379051635227,-0.007961587880265249,-0.06891699189291614,0.046290221427140905
5.188387979,2.438469247808645,0.6278471928725682,0.6866967813542209,0.08446466337714134,-0.047898693092419196,0.005472935082009778
5.197387979,2.5336208880244753,2.2735366488390567,1.6288628984483624,0.028751609551783113,0.013485551418516165,0.005551606302272421
5.207387979,1.0295780425697623,1.493218029782753,2.8976277712403924,-0.06543856126113765,0.04923000180461694,-0.014055378749398412
5.216387979,-3.019811785548374,-4.206973022471358,1.037080053740542,-0.0030264116428040874,0.005028861907798846,-0.028936455256334967
5.226387979,-3.0004303006944997,-6.620136523522342,-1.5064590029289946,0.05600737417714383,-0.050293641772171126,0.028662842180615298
5.235387979,1.4113419492638464,-2.246654378011996,-1.9998477571451194,0.20224431738821083,-0.05729036606448075,0.0052571167494875025
5.245387979,2.8303934193354983,2.211438735161832,-1.4238183186057691,0.21445805363602807,0.005959348657805336,-0.0015822752844545048
5.254387979,1.6987107691641967,5.163541778155137,-0.16581764579614253,0.13684907317963035,0.05844637571458494,-0.02338452892391965
5.264387979,-0.1696426370903415,6.15239558947987,0.7312702860358119,-0.03694630731500662,0.07622466774075774,-0.0027795195727524586
5.273387979,-1.1952782694650779,4.470031743838851,1.0527774312820761,-0.17836212737588994,0.0557837891892671,-0.010106395636436956
5.283387979,-3.533204029612911,-1.339859816528942,-0.5021304045223627,-0.17263294749359956,-0.02453121663564269,-0.001117469377193178
5.292387979,-4.217661819772804,-6.199772206000249,-1.7200108345952394,-0.10295335027439095,-0.10399135996987728,0.021127171327389734
5.302387979,0.5625522446433515,-3.864175794269378,-0.8021021077245817,0.01694293959653131,-0.10889081023788869,0.033098390332919295
5.311387979,4.080098503315968,0.5665167679090525,0.8796415229180873,0.0769146999930819,-0.04173098609492851,-0.00015621484610765102
5.320387979,3.5694699153563043,1.980383796810641,1.6597842199727424,0.04275541320645944,0.048149380871359844,-0.009299784846626321
5.330387979,0.8766677879455012,1.0814337640719243,1.899197621410765,-0.014112457005108008,0.09638204432623448,-0.023082411295180495
5.340387979,-3.8358842094285897,-3.552681573356296,0.220541644438973,0.031065163521800918,0.039751699641285256,-0.027977284591393096
5.349387979,-3.656549072051683,-4.441004746362392,-1.2245391870376077,0.07393837840362574,-0.02941697318553807,0.021009424662683983
5.358387979,0.36459471037297086,-0.40622452173641804,-1.449236943566378,0.1622910168211287,-0.05915199082521523,0.005307689498179027
5.368387979,1.7158086543651832,2.8958433753707515,-1.0574780306305716,0.14515510153513797,-0.03053933557319174,0.0004811943544834312
5.377387979,1.6972448311334158,4.702292227764254,0.20132093575228885,0.038267799349021366,0.011919057214178956,-0.012586825383608495
5.387387979,0.9746771693099993,4.402588185009062,1.0845777331134636,-0.10630181530129848,0.04267479862013217,-0.009561368964105333
5.396387979,-1.0386634849186298,0.8579066926987429,0.7488176568613621,-0.15860630152524943,0.028995022934060075,-0.022174908220387125
5.406387979,-4.082351227362711,-5.535220453684181,-0.8978250727820466,-0.07996564953706453,-0.042815200241635744,-0.005725171030851086
5.415387979,-1.859708343288191,-5.601445729839188,-1.3105696144867782,0.010893264654076857,-0.08465590022115493,0.03095804970280662
5.425387979,2.7593191979629794,-0.3142453765916944,-0.17409858394551378,0.1278698554939152,-0.054761645991800445,0.004353037485523842
5.434387979,3.3168226478499436,2.644118173157535,1.0069888223131516,0.10407992927663332,0.023289308110942125,-0.005296816803367145
5.444387979,2.1138320628005647,3.4345721048997024,1.6245615429183826,0.004234926237862565,0.09283310271781536,-0.017783691981373646
5.453387979,-1.3721974894205604,0.8622478024057629,1.2549431143586136,-0.06447096678965047,0.08811650538440914,-0.01949112613753779
5.462387979,-4.926401446405085,-4.403613245817001,-0.4898812060585257,-0.01206718293364823,-0.0008649684686152575,-0.018771428785763187
5.472387979,-2.693549096092278,-4.515905776109504,-1.8785300501602107,0.05689641806184299,-0.0688938086783254,0.034398029193183494
5.481387979,1.5565291061067779,0.23156585025123916,-1.364096661969036,0.1571653772583323,-0.07517742184353202,-0.00024858762862851034
5.492387979,2.5015747465062876,3.5508831298084313,-0.03278069833736674,0.1107877603449959,-0.01249489103955348,4.3558531348170993e-05
5.501387979,2.0783113715497894,4.9636970254025155,1.052201789586578,0.004700601340994758,0.0433745892725965,-0.011529888355050763
5.510387979,0.7778952007725555,3.6943091537714317,1.3658264726358027,-0.12113554497809384,0.0736943651737466,-0.006044862718392526
5.520387979,-3.105512188320087,-1.69168340397162,0.9524090734082176,-0.12944393749303074,0.025996310839149307,-0.015132004762559796
5.529387979,-4.966640815057342,-6.8649087739459755,-1.3541006902177317,-0.027155894082960274,-0.06392385289573083,0.017347955061303544
5.538387979,-0.331302712082274,-4.296549569352161,-1.7500775807908076,0.056354007488575164,-0.09426146729611543,0.04440277919569654
5.548387979,3.614230855937455,1.1936775947004519,-0.6299706352560988,0.17104548605093436,-0.05387655416875056,-0.0012337869364721296
5.557387979,3.322506943548986,3.680426775553402,0.6144325101867605,0.08067052178003273,0.03440120120835527,0.0015306353002176969
5.567387979,1.5541259123968632,4.6373642831737545,2.3727912235870354,-0.04421951365946347,0.0958576746932546,-0.01662084869793246
5.577387979,-2.292716419791179,0.8537245262856912,1.593946224379336,-0.11834775239371373,0.07138123880937462,-0.020439816262068287
5.586387979,-5.66354777231674,-5.744475766742678,-1.0366714231803702,-0.038376912798336625,-0.03784888047236318,-0.008032766623945847
5.595387979,-2.2681577826932617,-5.500848211211526,-2.253947351314714,0.02673624900570511,-0.10011486259325886,0.03948105439223884
5.604387979,2.626325197851633,-0.06928419270421204,-1.6348138144862001,0.18606897224283953,-0.09950461282128761,-0.0058193086454586315
5.614387979,3.197799602576719,3.402777064102598,-0.04636785107437647,0.12383263233185547,-0.01636861245821718,-0.003238962275995395
5.624387979,2.2030247611550102,5.0124521035198715,1.3256041172090591,0.028941186087912605,0.05154942399804907,-0.02021638898230601
5.634387979,0.7169414401361283,3.7177592413772875,0.9810570452080067,-0.1150262081942259,0.08801162924772563,-0.002090603884424504
5.643387979,-2.2438253135040744,-0.13501773584843835,1.0708715297056361,-0.14440903579709302,0.0633014824063342,-0.008716661126842473
5.652387979,-5.032648037806398,-5.706655349773843,-1.5238457761633069,-0.040179352700586354,-0.030462352344932365,-0.00045957114964096415
5.661387979,-1.852037456451935,-4.223718541008935,-1.9358364893759665,0.013208355369019792,-0.08022186692355557,0.0525997324536966
5.671387979,2.5281824270218967,1.0643539024657507,-0.3636005814076181,0.12848643376397725,-0.07407507412088112,0.001160949987782275
5.680387979,2.8632492931161546,3.1587499046258127,0.988094292537054,0.03804900227493144,0.0035264018308433513,0.0151755224600233
5.691387979,1.6732634764635068,3.458669096284556,2.497730023561344,-0.07206066705258327,0.06802901134026743,-0.0018430927109625104
5.699387979,-2.11681530668883,-0.7907195425914906,1.402033658980945,-0.08928399571299633,0.05345998237665285,-0.009547031556554104
5.709387979,-5.351241859905885,-6.886294406672436,-1.3102345850339643,0.004110040473926182,-0.05016324636212682,0.012490697513915858
5.719387979,-1.3300204899958674,-4.393103759122425,-1.9178401289431688,0.10307843173627504,-0.09393842260333427,0.051831080001094064
5.728387979,2.8737133412555926,1.5259767793736336,-1.1343282363730778,0.22205223680062958,-0.07499454640406839,0.0010448846371824746
5.737387979,2.523959275727616,3.873480346787831,-0.37344106620330003,0.14302559025274503,-0.005579665893439639,0.0024620588394681977
5.747387979,1.44649564980904,5.591156926616578,1.6472854067005633,-0.004931832680509117,0.047696198256526254,0.010869180436004234
5.756387979,0.6526973357975621,4.333285345159913,1.1666629054603292,-0.1494668564504961,0.06905112291247537,0.012290852211786859
5.766387979,-1.349051442109647,-0.059662981181117354,0.48575880657067644,-0.19737669249528098,0.05695889028770584,0.023303830924953584
5.776387979,-4.395790957694274,-6.41489439515869,-1.89328829898188,-0.06080533574098572,-0.03578929754590733,0.001701207145807015
5.784387979,-1.8355159356286752,-5.10546540428236,-1.8044626157907624,0.007917113297099355,-0.06421830588897497,0.07075063028080467
5.794387979,2.387976166956661,0.674529707690156,-0.03836533267211832,0.13462077912139833,-0.06386986134238076,0.005165608480109827
5.803387979,2.6860260443745654,3.0954592897889124,1.252650846884368,0.06280468144047315,0.004872715638452917,0.026014344370072356
5.813387979,1.8252142482472078,3.557065104202566,2.47829444760357,-0.04745356227102931,0.060440372837740744,-0.001975531809474491
5.822387979,-1.3381284084936562,-0.2784530374651518,1.0412400920321065,-0.07945128120703651,0.05553066332399949,0.0006901006790306381
5.832387979,-4.324655886132144,-5.780923202475283,-1.788654771543452,-0.0015378072416331375,-0.0293938433511885,0.009259004573091263
5.842387979,-1.477585488571659,-3.728238467028462,-1.9822055781011911,0.09230599939947892,-0.061262866625793944,0.05083832791504656
5.851387979,1.9544749650588005,1.4791851300151069,-0.5837662787173666,0.17789704369275142,-0.047862887560510596,0.01568654426386215
5.860387979,1.983928234012178,4.0957916030015165,0.33184444268072155,0.1047873144395172,0.012123980643683814,0.026465520048932385
5.871387979,1.0183282676842853,5.160782579029202,1.8281724182375152,-0.056198819294616675,0.06387813698910515,0.033214608670892376
5.879387979,-0.8300576191410749,2.8101556449095257,1.6309969660985264,-0.14607480316370008,0.06474858062856109,0.030008023555260815
5.889387979,-4.483538781183445,-4.0717369255611064,-0.923233618401698,-0.0905815833577723,-0.01809090872929802,0.04125524013824337
5.898387979,-3.706897265492856,-6.090552022880687,-2.3148470018981104,-0.02913807320694201,-0.08619128260024526,0.08450430515199069
5.908387979,1.3000819423135705,-1.1753576526345402,-1.2094951518308503,0.12047253478939743,-0.09263010318459694,0.06339674106501539
5.917387979,3.133403474571524,2.6254511963591662,0.6825829228257757,0.0987855454044542,-0.022365684277163365,0.06118335502254875
5.927387979,2.3727527614917054,4.14216574235617,2.0186931640562147,0.00980331354976692,0.05748251896687852,0.04714478605698882
5.936387979,-0.03392078379068057,2.4580045936095463,1.9772532983172262,-0.09657169982940944,0.07952234862499397,0.054894864234860175
5.946387979,-4.463385619360726,-3.7594676602458086,-0.038906896033549285,-0.044680869048065654,-0.00850682353627602,0.043737195983585324
5.955387979,-4.056033324233087,-6.259827003313098,-1.955970431693345,0.008943015201240408,-0.08615315697933838,0.10743597534167444
5.965387979,1.499436135254966,-1.7090185484562725,-1.6810388823846099,0.1589633603617262,-0.09801488787388793,0.07707919024376034
5.974387979,3.445150744694534,2.308615528083521,-0.5134387913564684,0.16531797431544243,-0.02165079979055213,0.07343237145109953
5.984387979,2.257124628026124,4.806321093573279,1.152761768884617,0.07399913900403644,0.05987247804594264,0.0655479246286162
5.993387979,0.44162239015649285,5.058508098092754,1.414404367805906,-0.06898371955101405,0.09474967842266664,0.07886006705955238
6.002387979,-2.0285668872162574,2.229171077917268,1.2980838588745338,-0.17389536591251598,0.06903822675457212,0.07708585821988705
6.012387979,-4.945889119480228,-4.642393596173842,-0.7565547484064754,-0.09651631584933432,-0.039123352394918015,0.07859189754209683
6.022387979,-3.086100190491084,-6.410031453725716,-1.8159370867305817,-0.02131820838469238,-0.10624364685273915,0.13118853140080672
6.031387979,2.1563049576463142,-1.4763395024418549,-0.6694780929590058,0.12484847680258102,-0.09987665388737532,0.0944142150329473
6.041387979,3.956151359509527,2.1100224586021166,0.8467147994948417,0.10519545817213266,-0.010457826175308,0.0949602605226292
6.050387979,2.9598091209213737,3.313314619442348,1.6500807694606021,0.034422848863165774,0.07153332806290885,0.07492396268484203
6.059387979,0.599755141420674,2.2056467397495396,0.926220309082238,-0.052784859253904304,0.10561021198599463,0.07599812088469787
6.069387979,-3.5982252195371243,-2.0062665207822477,-0.64438005405195,-0.02534096588845698,0.042277700640793905,0.06293454311549457
6.078387979,-4.222071677163148,-3.885399217890176,-1.587460135952279,0.009206069059505554,-0.029060380876220513,0.10424906603803766
6.088387979,-0.39682847524481035,-0.5465348313814783,-1.2487218238868412,0.10055395865581274,-0.07125764807993738,0.09326264996265204
6.097387979,1.613307612707547,2.401594788442312,-0.36853671121520115,0.08862446563106731,-0.0504007829791377,0.0953790545486881
6.107387979,1.9993517026410033,3.813313492543003,0.6420839805169649,0.010445879590143925,0.0021760861470847665,0.09117888631869006
6.116387979,1.4684462386366401,3.51005727263069,0.896590827324222,-0.09095922679433363,0.04699216740407572,0.09165227766427668
6.126387979,-0.6928707423785917,0.38616548493205277,0.7838786945338587,-0.12593042120546188,0.04463626615295984,0.08491621592897762
6.135387979,-3.878106677043665,-4.896342636795796,-0.37364351739618357,-0.056828007170228,-0.0177243743492386,0.09192062398488182
6.145387979,-2.337961932238595,-4.78920618184171,-0.6135850508337759,0.02153061369302879,-0.06643873694366016,0.1285266057707437
6.154387979,1.8695457540307712,-0.2423285649956001,0.20621878781005398,0.10977740545187513,-0.059551229214631504,0.1026829866688029
6.164387979,2.8581303577026502,2.1359504077211584,0.6655009213152682,0.08527042317487205,0.0030715905775905252,0.0948828995900552
6.173387979,2.204006214373828,2.5385588109266854,0.8660543523369053,0.006894005375897147,0.060000712996092026,0.07942916345744391
6.182387979,0.14272087755380142,1.0316183311360996,0.3860648764608293,-0.03912485755174608,0.07787415733872702,0.07694846852348683
6.192387979,-3.1903404047987505,-2.4497999903538843,-0.8647277566658755,-0.002152745508585791,0.02932202937859458,0.0701888504823795
6.201387979,-3.1391705179006926,-2.7903884035692927,-1.2907429551290162,0.03655855608670956,-0.030303094156955264,0.1010124475447562
6.212387979,-0.24453325424106448,0.6017928386979031,-0.4944459360328672,0.08965410324775618,-0.06557918757827742,0.08455048620640432
6.220387979,1.1369302590340393,2.4785921043122765,-0.08633477591420055,0.06348604650962328,-0.05534776184496264,0.08283206453639319
6.230387979,1.8632565693890148,3.048403811076293,0.3642787578998672,-0.019526439511315573,-0.01877759535139727,0.06970829286824837
6.239387979,1.8513862029286743,2.1665063966154285,0.6382732972356653,-0.09602487715348425,0.017972115171656734,0.061308392561076154
6.249387979,0.23360734523626264,-0.6257360812976547,0.5121232603555995,-0.09587163369359358,0.023937411348000814,0.04647648870972699
6.258387979,-2.381183289128955,-4.452865543384712,-0.29203583575434766,-0.026319797831194067,-0.01232838601005288,0.04547676381210453
6.268387979,-1.057046649531195,-3.591299236447774,-0.2240132202956435,0.028066110174719466,-0.043791845734533576,0.07136565761587708
6.277387979,2.3337428486686367,0.02486310829970539,0.32550734892088035,0.09484378239696153,-0.03988770669194633,0.04214229877627149
6.287387979,2.969643104434906,1.511267794799653,0.3906207221754652,0.0687995225907465,0.020346905334585812,0.03483103906174511
6.296387979,2.0492151847462523,1.8251174394320833,0.22675355940567246,0.0231205645362271,0.07388687100500171,0.01265300006885526
6.306387979,-0.22340373102190442,0.7580868617768955,-0.26932342734910064,-0.010978384618589868,0.08515909055576192,0.008812372992681429
6.315387979,-2.8365943528179822,-1.2968315041322416,-0.5833317485699667,0.00801984305690622,0.03578257705748442,0.0011310169714192583
6.325387979,-2.62176603106828,-1.0615634667228346,-0.4922296592538436,0.018462497325389834,-0.025861264572552826,0.02687519113144729
6.334387979,-0.3077348354909848,0.8721949945919816,-0.25956464950584485,0.043961676668173084,-0.05832392222669032,0.019536796083398075
6.343387979,1.2912395220280168,1.6489318047751467,-0.12844495035938774,0.01425585545095023,-0.042230877112536036,0.020551683433122168
6.354387979,1.9550636702652158,1.7490332892996654,0.06652236655508595,-0.029544842117620537,0.008206044956975219,0.010067285622685333
6.362387979,1.54357525660762,1.0709720865420609,0.08002096274913921,-0.061879295412942154,0.04901834285763284,0.007951611971658036
6.372387979,-0.7547482210689679,-1.0370323924745737,0.34721341451593624,-0.043759793324081184,0.05658785569119499,0.0031744548905896022
6.382387979,-3.0437698242442877,-3.222326491595218,0.2218362610354527,0.009910405036297244,0.014567076116045569,0.012999753951145497
6.391387979,-1.6598818659859973,-1.6715752469590568,0.5946021383549627,0.03127356806423897,-0.021792716140263065,0.03893808738652556
6.401387979,0.7033761170653824,0.6679521650182333,0.612975744881057,0.060598765508089306,-0.03376959059360364,0.015224942135812896
6.410387979,1.2868369907116886,0.7961558088936734,0.16582554017040294,0.023899820170090583,-0.009050012135005206,0.014638593556247411
6.420387979,1.187995741842751,0.46043915909214156,-0.19675786209400417,0.008947240589897433,0.02077505251321209,0.002919930055025943
6.429387979,0.625872586132534,-0.08572890711593588,-0.9510239976900031,0.013711415097868426,0.03974164059525309,0.002623983515071261
6.438387979,-0.3659532837778191,-0.026537561116525207,-0.8785619310050081,0.023670665932733655,0.04394328999202078,-0.00301307516512352
6.448387979,-1.2869299919595263,0.8112757179835904,-0.24632900053210438,0.02293084173822707,0.027590954057094805,0.0021566448453335337
6.457387979,-1.5372977722261219,1.4131696058429912,0.031158688070771247,-0.00019861651536030585,-0.006899040294013942,0.00879336143103566
6.467387979,-1.0027670442181094,1.1925509454023093,-0.004786918069707559,-0.034749338985651204,-0.03887058189971882,0.011984186436830739
6.476387979,-0.010715469032582787,0.5464135450515654,-0.0051463232021839445,-0.05540362978607007,-0.04783838456190501,0.010974048227256278
6.486387979,0.8721769717422162,-0.4313987704299023,0.11219308256287856,-0.049839290513047536,-0.03336331190074369,0.008788074351024473
6.495387979,0.8710182403511285,-1.5521625566951387,0.19893384760609287,-0.015573150091017384,-0.004830002242457664,0.007557939382509258
6.504387979,0.5926943983491119,-1.5380195027377612,0.15205073363104255,0.020421500982993397,0.02612685899055334,0.007575737539746125
6.514387979,0.17938721686261783,-0.3402098313821487,0.3533350809929283,0.0413985071671614,0.04378488627546727,0.007039043604237358
6.524387979,-1.247367596526343,-0.0003482955313065389,0.6921415572325251,0.04438166789823514,0.028401547609980884,0.0004873245360494209
6.533387979,-1.980364809775694,-0.1626529252621473,0.45399696495078573,0.026738755945411086,-0.011709106862795148,0.00862693395586623
6.542387979,-0.6702837100005534,0.17362749496990018,-0.038046065832674704,0.016672138632231992,-0.04651410608052795,0.019517867403182378
6.552387979,1.072441996417442,0.24492889668032647,-0.6962812895798189,0.022265646140279184,-0.04124654460535233,0.012527637442455117
6.562387979,1.800609498558029,0.31049109580853634,-1.0104567847285302,0.02907536040062951,0.0038493086705149457,0.009650317284257475
6.571387979,1.3140622446463084,0.9847186354199473,-0.45144567524489027,0.018463480650189167,0.04690640682150625,0.0024778059443907384
6.580387979,0.026709198129018792,1.485868259024143,0.027716720399377393,-0.005963969565653316,0.06396543682332029,0.0024820946531745004
6.591387979,-1.6972658990930676,0.9485953729676811,0.17700324249322866,-0.02839484681613117,0.037221542383077476,0.002376903938976933
6.599387979,-2.855732136763824,-0.32022309113676395,-0.007741838238227517,-0.030858218698307897,-0.013034595884995986,0.006464198473699933
6.609387979,-1.6005821476483582,-0.44291751514945066,-0.08736949764691194,-0.03873109552468118,-0.06247978438256095,0.025122917142940005
6.618387979,0.7727044887716702,0.101837765754492,-0.014476727291070635,-0.020024142628446005,-0.06667225316431193,0.014219194563144709
6.628387979,2.110248595335837,0.062237617836671824,0.012180782479118912,-0.018392189782605185,-0.01964559754204787,0.01628073849037117
6.637387979,2.0170773203990797,0.06309311496421853,0.6250156135252258,-0.02166014765491798,0.03709820255025133,0.007752936187716761
6.647387979,-0.5669990745149202,-1.5323241430791332,0.8573686631272284,0.017066602895688187,0.051148575713330244,-0.006857881709308455
6.656387979,-2.681400398010564,-2.8532879392538533,0.46186095743913713,0.03539076285173402,0.009027399037014477,0.011151077049593453
6.666387979,-0.8980356232731679,-1.1055954584382468,0.20194908181130938,0.061032881838200326,-0.03654508722764964,0.020815344975061895
6.676387979,1.397971523065464,0.6989166709307755,-0.5370472223456848,0.08789432249657367,-0.0340937012649233,0.0010717636006454011
6.685387979,1.8814236677881586,1.2608334776388452,-1.179405380993721,0.0749609151880047,0.005066379593882451,-0.007330584339006956
6.694387979,1.2646526565710996,2.1530256313670475,-0.7512805698339177,0.03465185998655322,0.04500869324247294,-0.017697628358945193
6.704387979,0.036201531589468455,2.6246943852941653,-0.33719757097105596,-0.019733082117092494,0.0550497635689192,-0.027933093526421815
6.713387979,-1.0105994667286236,2.185081414059376,-0.3467008789671775,-0.07681714504095646,0.03499029403865343,-0.028120231250982276
6.722387979,-1.642439056239429,0.9801590183043152,-0.022339235334633334,-0.10542772975257399,-0.006365824663198781,-0.033632966622372314
6.732387979,-1.6021180320993917,-1.0128218241321143,0.09928840548569276,-0.09351052717825015,-0.056848253204234374,-0.02766952588433011
6.742387979,0.24572290709158504,-1.7109687648297056,0.3063992226193906,-0.07356724200089494,-0.06696221762947752,-0.015372906293953652
6.751387979,2.509022057456401,-1.1801675963104243,0.39076735611669833,-0.024374256192101696,-0.026538455878600292,-0.022674474641643183
6.761387979,2.5457882415164694,-1.2406502791550373,0.5656389376552724,0.008295687367136203,0.045058790446980815,-0.03451698853949317
6.770387979,-0.08339639672404817,-2.0938926973885588,0.6958644304670345,0.058340798843188546,0.0697703984891431,-0.0494399598941912
6.779387979,-1.8966006884933952,-1.6246779080789464,0.36553399447817353,0.07168849206249464,0.05055961508224523,-0.031305627291900784
6.790387979,-1.2820454765373077,0.5300030608567874,-0.19086308466803326,0.08940754585124391,0.005051409126208702,-0.03382544454681715
6.798387979,-0.6489349991812859,1.5960888210142794,-0.7321009342799997,0.06721823435232943,-0.011870383389252056,-0.03778954161753631
6.808387979,-0.2279291225916535,2.1589965135199334,-1.0108318152425473,0.027470905153412346,-0.020681395461471498,-0.04120381739635484
6.817387979,0.18354977195810573,2.4847427899152237,-0.7215677356340394,-0.026173093372533547,-0.015142001815572435,-0.04030071804097863
6.827387979,0.34048166012991493,2.14493484486063,-0.3455338981498005,-0.08127934563475203,-0.003959380649572141,-0.043599935392261466
6.836387979,0.2595725480695158,1.172082173730801,-0.33910644900772235,-0.11098456739419213,0.0038844093284685667,-0.040158616539848896
6.846387979,-0.4609076550030173,-0.5000617713023376,-0.13646692978775463,-0.10002857963775169,-0.0028565528724827775,-0.04362935843690869
6.855387979,-1.2064508816859294,-2.148258602156345,0.39775468970919076,-0.07019535795044637,-0.0239611131520904,-0.03263590407315105
6.865387979,0.1939438085020801,-1.718297301837681,1.0502842635746443,-0.03858380871637524,-0.026905010083488473,-0.02014453224822642
6.874387979,1.8793709132157768,-0.6631436146535243,0.9802996185901877,-0.001044738444445186,0.00567563779576101,-0.02952784031518192
6.884387979,0.8639703289205799,-1.1817819005329548,0.07380392412965829,0.03190437831092094,0.04327030585386634,-0.0431136420870475
6.893387979,-0.7996513695906682,-1.2042392016432077,-0.47863234899067425,0.04633829112628897,0.045604360164258374,-0.04277334614478141
6.902387979,-1.1469520993482434,0.30097790615785974,-0.32586285267364434,0.05192034098715474,0.022305561979980244,-0.04200129005576156
6.912387979,-0.9759057976560692,1.6231567893929202,0.03770042130772666,0.026150593085256486,-0.009080413748781503,-0.04838167173075433
6.922387979,-0.6025306558020163,1.6688681382844996,-0.13910739929754623,-0.016212533238613047,-0.02871698048787331,-0.045530429009881884
6.931387979,0.0523623845201242,1.1478302140335288,-0.47430268521932445,-0.05063690244751812,-0.030056809798064816,-0.04528588556003814
6.940387979,0.6155269849317713,0.48245502112764477,-0.5803235871679123,-0.06395261405038462,-0.018762522962976314,-0.046603350526380795
6.950387979,0.7735873652603974,-0.015191066619887256,-0.5742091392206653,-0.05833338456322492,0.001402991671444085,-0.04738004138410697
6.959387979,0.3847699553215007,-0.1313857036728191,-0.279877032958597,-0.04633299261923638,0.014272553254156798,-0.05205467887780123
6.970387979,-0.4585105158974891,-0.22599692086090942,0.4007478268200035,-0.037218799842996635,0.008231591674730166,-0.05415807304980481
6.978387979,-0.9921798763638874,-0.46436528406506905,0.8886521850510937,-0.03684278791824046,-0.008912345940819882,-0.04947220815786545
6.988387979,-0.48102508893512197,-0.8092949923531649,0.8774510331151765,-0.031409262130162444,-0.024558501250981857,-0.03978196302442902
6.998387979,0.42047477099484365,-1.1924035968819648,0.23102007836565083,-0.010505558669012219,-0.015018996822964849,-0.04041230688943564
7.008073837,0.7101668541327666,-1.054338585732166,-0.38882023140034006,0.01784591610258017,0.010143140823285064,-0.04554008601654159
7.017073837,0.4358473003213521,-0.0998819140398234,-0.4553331069895714,0.034316694203808173,0.0255563244961998,-0.050865934722336595
7.027073837,-0.18561837133928438,1.0287197916004123,0.041144806216217536,0.019095953063481247,0.027885935184101814,-0.05498364294755209
7.036073837,-0.8873625352675979,1.3827708577031725,0.432619831738759,-0.017169141077719014,0.01251850814592396,-0.05617518230503936
7.045073837,-1.3805227544867613,0.4140766138314842,0.2230969951401773,-0.039315215200487724,-0.018273737417554604,-0.05151526448038153
7.056073837,-0.7262517625121324,-0.8108787332123487,-0.5166459184149023,-0.03845405143368571,-0.041201493003906305,-0.03836669551139615
7.064073837,0.6705268992159807,-0.7100509331626659,-0.8535233892805535,-0.014902275945089227,-0.03281490857592186,-0.04134661464458697
7.074073837,1.2491728350974685,0.07608629082217483,-0.7740345109552038,0.009851266820097127,-0.005665387150868607,-0.049169455160962564
7.084073837,0.9447726024373537,1.0376888014632741,-0.19151763634364555,0.00044972828842058303,0.020686611953447856,-0.05546151557556915
7.093073837,0.273334906588701,1.834434925961902,0.6447299906186171,-0.04041730299541394,0.03296452319940934,-0.05896679753421123
7.103073837,-0.8672071080396702,1.2136613863045398,1.3471926824795994,-0.08026070598611769,0.0141111211782523,-0.06354644397365351
7.112073837,-2.6042793016454686,-2.1458857993260256,0.6602674722265033,-0.06177644372133306,-0.03546500476638835,-0.05695721080315751
7.121073837,-1.6999630802733017,-3.6602313363089145,-0.43507289112835057,-0.032604012467670924,-0.06793597775136767,-0.03327823019280922
7.131073837,1.5189311376234271,-1.4259930805943428,-0.7302233862217407,0.043398294066922825,-0.05405647190105161,-0.04321155617931913
7.140073837,2.9064834113286775,0.6562450059039028,-0.4987616619629094,0.06640437200300195,-0.0024432233548551,-0.05714624812911326
7.150073837,2.3230266909007082,2.0224483603751064,0.19354678311763193,0.028821930163644698,0.06653612527613285,-0.06551806235557703
7.159073837,0.4069048178984158,2.3359811494843603,0.8712078042551727,-0.039385805975148784,0.09498515662267915,-0.07059223597603326
7.169073837,-3.097153544017476,-0.3424868043021664,0.6142176748824069,-0.053309572710848296,0.037195155244490304,-0.07123943658018242
7.178073837,-4.328103432258242,-3.0647127794729205,-0.7316513708267116,-0.029448356263154937,-0.04703508816309783,-0.038900932355213656
7.188073837,-1.0319792807196422,-1.5072917494669422,-1.2706139964745082,0.021232796334675445,-0.09439489137531479,-0.03641507474135501
7.198073837,2.1237169712956625,1.2313179819952347,-0.8538385211843649,0.053742830346766704,-0.07561871823176593,-0.05501201914661698
7.207073837,3.1508058978566584,2.513163161975157,-0.0652234525006484,0.005910601616892859,-0.012347228069681035,-0.06384468601170605
7.216073837,2.7096893650684466,3.1013971692489726,1.486179172227538,-0.08350755532820123,0.06073489495432598,-0.07144588679968492
7.226073837,0.01277155356297123,0.8065455308015395,2.2957738223476634,-0.13020639294702188,0.08370071969736179,-0.07659827479447878
7.235073837,-4.565017510060379,-5.522573025775322,0.1344238403477676,-0.037053382823716736,0.010860196637965643,-0.07132807212181781
7.244073837,-3.4582922880987716,-6.044185148380292,-1.4193768593655363,0.010459082507843914,-0.054506520956271995,-0.015761770373130854
7.255073837,1.5844817089957908,-0.32393714176964766,-1.3638075653758182,0.1636830714605966,-0.07724485452368673,-0.05753482929650867
7.263073837,3.05454143411025,2.998855090901897,-0.38704497221435896,0.10649064825669638,-0.02396895124240255,-0.05895070628131426
7.273073837,2.4726014765612248,4.647187175527546,0.8668631459312519,0.018789270612944723,0.045050033988709444,-0.09364794873423117
7.282073837,0.984049772288993,3.981393161829007,0.6335264879925552,-0.11130689129124557,0.08630696570169175,-0.06961315267518194
7.292073837,-0.8805445306399233,1.4128408396018965,0.5287142525772618,-0.1800203222391869,0.07394741641076606,-0.08415845402600176
7.301073837,-4.005719835972049,-3.976203746227627,-1.3739148442395737,-0.09975195279642465,-0.00036851050139136154,-0.07744836804832135
7.311073837,-3.0542586705762607,-4.4856760623953384,-1.7392643417965925,-0.04153247605345704,-0.06380871315963123,-0.038131171755004405
7.320073837,1.1653902901580897,-0.14899611242312358,-0.5453063963287987,0.058483651115460805,-0.07868598316274886,-0.06440860557726404
7.330073837,2.8433726441630798,2.7908985244062716,1.2559818429856382,0.0036111865223918444,-0.01909826494302828,-0.06455637404369247
7.339073837,2.829195455928434,3.3545429184409383,2.411416622567901,-0.08073341110829164,0.04757974875542333,-0.08477971968407111
7.349073837,0.026396664251789007,-0.149759138792404,1.9122573373457117,-0.12688067509767725,0.07508563713276079,-0.0747932576946104
7.358073837,-4.871957801267572,-6.951521183586154,-0.4311995385653823,-0.023402449944222713,0.0065325066427772555,-0.08508286755474831
7.368073837,-3.1825824205158684,-6.36120453645543,-1.712325190979258,0.06642376187931834,-0.05353436066943344,-0.009908087187545316
7.378073837,1.8431669583935482,0.43792413779135614,-1.294233510863415,0.21834221452095,-0.07302716102275056,-0.06754894437283526
7.387073837,2.433547928208354,3.685919811208749,-0.4892564318927215,0.14849066571548494,-0.02302757747653392,-0.05753218960749935
7.396073837,1.780087050750253,5.528492676635809,1.020461172594077,0.02953871526371557,0.02707207496007737,-0.07407393805770558
7.406073837,0.8825170576401463,4.888751546303773,0.6789264874683772,-0.13222762061377968,0.06478116928010175,-0.05764117904747714
7.415073837,0.5051187067823232,2.4844793719088787,-0.1343856410101005,-0.23360104997214992,0.07578948981406178,-0.05323111148726726
7.425073837,-2.323172072191687,-2.6172256472479347,-1.4436339192455845,-0.1695521452942662,0.04089858043048542,-0.07436642428263779
7.434073837,-4.465141341720646,-5.989780150236576,-1.924768850914211,-0.07712187333245982,-0.030361142900163784,-0.04848308733838289
7.443073837,-1.1821961673675005,-2.3962133566706023,-0.2077585680193309,0.007995412418779907,-0.07063959166031976,-0.029022169773497752
7.453073837,2.1572926037567446,2.3406781942581123,2.188767432263642,0.01994119353467583,-0.05254453850045643,-0.052639473435753814
7.462073837,2.870421706961749,2.576309734433519,2.485974531732886,-0.06796436785973307,0.017076459744383786,-0.047465857702062506
7.472073837,0.3273668191040519,-1.4167713698890505,1.5650927540661344,-0.0873433045991027,0.04915943753083786,-0.054671579092331064
7.481073837,-3.8758855422436653,-7.187897940767182,-1.0619444618761469,0.024700189940181513,-0.0012298836178656575,-0.05282630959501633
7.491073837,-2.021034679677957,-4.91382779382791,-1.7667421580697313,0.11982132601610443,-0.04018045667354265,0.0072665048023387285
7.500073837,1.8685170967511107,1.296790640931669,-1.4114515962926202,0.24670474313002438,-0.0549928660357968,-0.05436458864010485
7.510073837,1.9632219075203279,4.573110103850809,-0.5691155284062289,0.14709048614706868,-0.005484093346707812,-0.03306156376697627
7.519073837,1.3339844907586567,6.531822996287112,1.2790568560579487,0.00851642896950948,0.028838597561306325,-0.05873071062857581
7.529073837,0.6345472270576921,5.297701939501222,0.6682468871250201,-0.18479273584384728,0.057029997261738734,-0.03438780947554358
7.538073837,0.3812027094659316,2.039741994553386,-0.18122190837788765,-0.28609735869174224,0.060150582737468476,-0.0403549015933157
7.548073837,-2.5337621827348418,-4.089354258012354,-1.7060729846557217,-0.18213188198064056,0.008427295864434891,-0.058577239451391774
7.557073837,-3.1438137411878033,-6.478280107165897,-1.7999879363361317,-0.09217684959580787,-0.03882503869743876,-0.016929496894004817
7.566073837,0.9565812266814914,-2.118601640686897,0.22961740814097711,0.02456414716695193,-0.04215876852816835,-0.025521556846215966
7.577073837,2.892720843705023,1.8520346598513384,2.521390233151344,0.006885025191371351,0.0305781045890079,-0.03154057952093043
7.586073837,1.9441492613941422,1.6465294912826471,2.363344862424131,-0.044167784664315236,0.08823227090856049,-0.03933578841384957
7.595073837,-2.463700313242089,-2.6348069346935814,0.24910122620631142,-0.014787033050837586,0.06969176480864513,-0.035099546006913236
7.604073837,-4.584328878439124,-5.399235626315808,-1.7239586196859056,0.03874130988801345,0.004864144940572409,-0.004293941332668952
7.614073837,-1.252833233021137,-1.672218080007788,-1.8914423072465631,0.13941011769903527,-0.04968354649151866,0.016507586084626436
7.624073837,1.4121332272381957,2.9586313319867834,-0.5621353548814678,0.14235879522871256,-0.04358578078844838,-0.009194811177302782
7.633073837,1.776977406534667,5.0890111651097305,0.2865057872129052,0.03813465241494485,0.010247427573378104,-0.004493713272483766
7.642073837,1.0266068294148982,5.277947988669731,1.277059369712721,-0.126998000885874,0.05727503967250632,-0.001762407648036664
7.652073837,-0.4652480466271376,2.2541809247889786,1.7000583884557414,-0.22950911608633412,0.06317318382266261,0.006357400579895457
7.662073837,-4.414705417446316,-5.409332774847137,-0.8428769124175913,-0.12285565858487707,-0.02953862054882256,0.005697560771860956
7.671073837,-4.119623581290436,-7.773418425736488,-1.976041616917716,-0.04307721557229761,-0.08807670721933138,0.0688591415628634
7.680073837,1.563356549003463,-2.2324541919329794,-1.0886487091147994,0.12210763961987554,-0.09038470710925217,0.04176085710629651
7.690073837,3.714509283928251,2.481121212913567,0.4576713601648505,0.11625796837240782,-0.007422903575474999,0.029343721324048062
7.699073837,2.5356226171546306,4.199435270354332,1.6267696563771845,0.02420914225540869,0.0706792772056417,0.022234058820200464
7.709073837,0.8360041530876665,3.67451041606894,1.142342729291824,-0.11860589300949624,0.11310464110321078,0.03391189398224205
7.719073837,-2.5702743215862354,-0.4715258031148384,0.3439188847845145,-0.13762497441631316,0.06521910432085691,0.015534938823706924
7.728073837,-5.22586216420717,-5.961719527048346,-1.7239758231904132,-0.05644534561241671,-0.027640582553253322,0.04170676342586908
7.737073837,-2.047535247918042,-4.105435076113308,-1.9423782441036268,0.0317487311216368,-0.0794810480412687,0.07373728247513953
7.747073837,2.1531610057088497,1.3762341503763602,-0.3041754076604139,0.10276760371646551,-0.07044142187943582,0.03700512877156419
7.756073837,2.8158167059854304,3.6277511803447653,1.03815396033551,0.027351295625501912,-0.005339067591797829,0.038722470390198584
7.766073837,2.1805947805392853,4.018038758571269,2.0776011120545554,-0.09873098048798985,0.0581077745027902,0.03047489677775366
7.775073837,-0.42535849780565715,0.05624523765226891,1.495838987126573,-0.14576596698004152,0.05439960540852752,0.019233191324302797
7.785073837,-4.541708967526836,-6.8555248794051336,-0.9595114480483795,-0.04882853981279027,-0.028353170164646592,0.026474023116243434
7.794073837,-2.395470279630546,-6.343888872350448,-1.77825311438391,0.044600813067755415,-0.07297181508421742,0.07386126871997643
7.803073837,2.6112355919376973,-0.36414630254627056,-0.9679385033872399,0.16937398062502623,-0.061156985361575,0.035160009411746844
7.814073837,3.0481140744488986,3.347864008678274,0.3034895980439808,0.12002430774312779,0.027105780366904905,0.032087127119942625
7.822073837,2.0989720927218,4.88240374662136,1.3285812714702563,0.016835058106134726,0.08332639309646539,0.024410117043485946
7.832073837,0.41219670160811306,3.443662592939096,0.9780968275589186,-0.11961256940897123,0.10518162235294204,0.03229162103302521
7.841073837,-3.3258460903705735,-1.5267534591924081,0.0020190059703020097,-0.12435242137663587,0.05343631995889599,0.02718412048106161
7.851073837,-4.599317680187811,-5.966757336548583,-1.7655203274878113,-0.032370075026738915,-0.035487297234985185,0.06080676916518897
7.860073837,-0.2692583274874778,-2.9791391848653426,-1.4741575362587032,0.05744969160295571,-0.05960961174002296,0.08163582624722271
7.870073837,2.8067060717540113,1.934688387120538,-0.002347201816884123,0.112909951808145,-0.019310178245384592,0.0500532643835978
7.879073837,2.491057405681997,3.568763055425546,1.2048376921530604,0.02099004522419577,0.04857863418179468,0.04779710737776284
7.889073837,0.9462645567279776,3.162474673491256,2.277481372830211,-0.10094925410105889,0.07619038774578928,0.03227586205193714
7.898073837,-3.1946780414310068,-2.3714191047988247,1.1990768706479884,-0.09626756327463343,0.017627908225190312,0.006652272525107495
7.908073837,-4.724119217878491,-7.703104225840803,-1.2901074004454844,-0.003652836781104201,-0.07767870471285002,0.04646850661101945
7.917073837,0.7636000171727316,-4.27337639111936,-1.626594388584066,0.10887431732994979,-0.10054131082952678,0.04797027611805115
7.927073837,3.978702573138652,1.1219197565703927,-1.0036161653647924,0.21949466107038293,-0.04188958448675093,-0.0047886951645534515
7.936073837,2.808982185678875,3.6486731192797035,-0.483760812205266,0.14898549515265236,0.036927730479626705,-0.00688581858171333
7.945073837,1.312784317738625,5.449158333134874,1.214782016652441,0.015593775759658162,0.08155625719940927,-0.007153496615774371
7.955073837,0.13585141858810154,4.543462324991309,1.2841943279406727,-0.14864253665792126,0.09046397402271875,-0.005982907507108586
7.965073837,-1.942415095328665,-0.005480490443611805,0.5262681428202161,-0.19398272029511232,0.04992987247545364,-0.003116085328947065
7.974073837,-4.6839373410243175,-6.538752798455359,-1.7631744204666178,-0.0720281101784978,-0.04117379047971005,-0.010938210177562383
7.984073837,-1.707863102986154,-5.488101373273643,-1.834843102938298,0.009352907789803551,-0.0803155183819347,0.039591695861641095
7.993073837,2.771092823728111,0.4153624629050811,-0.05806016201162517,0.13732190599293825,-0.06620833436307887,-0.02071799955697944
8.002073837,2.994157033040527,2.9809179769059893,1.4884108961969422,0.05438893000104579,0.006331025444847755,-0.014031927280159501
8.013073837,2.1498233260874766,3.2000324736801566,2.568025149064663,-0.06746119681969756,0.06144717606149644,-0.04524353617024432
8.021073837,-1.1380369159230943,-1.0881483393397744,1.1370656710241014,-0.07758029157131384,0.05060698505731458,-0.04937479596593386
8.031073837,-4.477929658387588,-7.007527806213275,-1.4611067743827344,0.015574306562449337,-0.033499384763631644,-0.03609379418212151
8.041073837,-0.9362710854166888,-4.398537417749691,-1.8914275448206064,0.12463568816083125,-0.06961245953651028,0.0014279980701888241
8.050073837,3.089007385176189,1.5406407955526193,-0.933222994392822,0.22228015070412085,-0.03856872540291983,-0.04557090059810844
8.059073837,2.505987810157884,4.136742990008132,-0.38754986685969367,0.1444105905663453,0.027591433734077988,-0.04373525534743408
8.069073837,0.9896894658499711,5.740107021499271,1.2001089406220742,-0.010787000348973085,0.061895591337301784,-0.055544578508196815
8.078073837,-0.1844643397134506,4.370817625378774,0.89300434380006,-0.14943957782296707,0.06508976570617407,-0.05191941414816646
8.088073837,-2.163890468484356,-0.21007367121344503,-0.14461012582271,-0.18875567318529948,0.022447706650239412,-0.04850778483445365
8.097073837,-4.204470721091375,-5.596759775814833,-1.6648000628170831,-0.09350653852709107,-0.061682177862062336,-0.048999525000263666
8.107073837,-0.922619026187886,-4.322487663264256,-1.1908855983211155,-0.005789765717819703,-0.09177550959760415,-0.004979656450366517
8.116073837,3.2247359797270945,0.2637236322473452,0.48329127849662534,0.07861466691558684,-0.060878782449381344,-0.05508288298205963
8.126073837,3.347143601551534,2.05987503560278,1.7175112088044768,0.01769202989394723,0.027059114245466413,-0.05053483698755966
8.135073837,1.8861802660652538,1.379609966797229,2.77228636505512,-0.04981880102455729,0.07180892225334902,-0.07720467774920597
8.145073837,-2.9804113066341134,-4.209640435335489,0.5769521466782148,0.012951899120624354,0.03065907861818124,-0.08695209687174818
8.154073837,-3.731594857272109,-6.465838513167896,-1.4613349121128651,0.0666560695937214,-0.033873430316877055,-0.041014999066719716
8.163073837,0.6480692818657591,-2.207484813275685,-1.7441127028778651,0.19551419577122914,-0.05951596692252724,-0.05669337252498458
8.173073837,2.4701827688309694,2.4702363371244127,-1.0215391005627983,0.20887679442313178,-0.0253486818683679,-0.07836546750399653
8.182073837,1.874415774110796,5.03372037672827,-0.04825210584026542,0.1167327489063133,0.019381944804122916,-0.1088419104777162
8.192073837,0.6813250821361991,5.503560299067268,0.8365828690985692,-0.049549257688362575,0.03938647761384989,-0.09242352873417051
8.201073837,0.41889219075946205,3.764441092816739,0.5743633984073166,-0.17508491797154152,0.04223641425757126,-0.10601952105174794
8.211073837,-1.0878394251580994,-0.9077323289127088,-0.08840985992022272,-0.19214855963620356,0.024667976409368526,-0.08950499640158294
8.220073837,-3.433447354395277,-6.195539752624638,-1.345179159791164,-0.08003149491541732,-0.04296454173168178,-0.10466443844174383
8.230073837,-0.7228856108484674,-4.994347279576637,-1.1021548872713827,0.01376122465886228,-0.06680346806059502,-0.05008144127002908
8.239073837,3.2864626726984483,0.018976917578232944,0.33480034900975314,0.1192849884492592,-0.040794771866526754,-0.10732161939635196
8.249073837,3.5005067650832444,2.3429875874788286,1.2400900223350833,0.06639233538886319,0.043829436636363434,-0.10474697710627179
8.258073837,2.1384801911919986,2.6344538691627664,1.8567774821345844,-0.015482568311076318,0.10253055597045535,-0.13470921331809477
8.268073837,-2.06615757487296,-0.9249629149537055,0.8101548326996881,-0.0329327721912077,0.08722440958894755,-0.13722349930800976
8.277073837,-5.063103635473051,-5.0134373877264435,-0.8011887309092447,0.01706602720977956,-0.0031408246984763986,-0.11357164397237596
8.287073837,-1.9100026413113425,-3.0452275328281,-1.2735049262543223,0.07965484281636893,-0.05828103315947249,-0.08133684688605641
8.296073837,1.8125422852451563,1.0715913594094881,-0.8194803051294949,0.14614763686087975,-0.055893372011150216,-0.10879734283762968
8.305073837,2.557184258597829,2.936427116361381,-0.2429027409818074,0.08665511798451923,-0.0047932789186094825,-0.11154833223572053
8.315073837,2.14854675542506,3.759513249711884,0.6703799860590159,-0.01241783811790862,0.054127336298805284,-0.11803903780885222
8.324073837,0.8362806841260846,2.5386677334296643,0.17106754532619622,-0.0916706034778037,0.08583193153690089,-0.12808451048635097
8.335073837,-2.463482906184216,-1.327023543823769,-0.35880525314101364,-0.077883115851163,0.03976618003716073,-0.1265003403133283
8.343073837,-4.1487880726024535,-4.2159393075049705,-0.8538293721337776,-0.03274290952720211,-0.03483248932947394,-0.11007834163034645
8.353073837,-0.9082562221692326,-2.229466653842259,-0.4464342309434609,0.02958937617124524,-0.07641165024843598,-0.08004946865611712
8.362073837,2.601893076314625,0.8271777057690132,0.10321890928803684,0.07780704273838837,-0.053357798323105346,-0.1134181966671986
8.372073837,3.279892740602229,1.8782817446916515,0.20802055726955757,0.028555103400970144,0.02834687206093548,-0.11569886424729928
8.381073837,1.8654837548506544,2.132083427022193,1.2030029474496242,-0.047354277793124386,0.09492598910034632,-0.13358879235251478
8.392073837,-2.475299535016538,-1.2888611161333703,1.186038078641663,-0.02816164624781415,0.057669391232249234,-0.15393143487540006
8.400073837,-5.283739899378145,-5.020040442678521,0.03748951941281245,0.006598725771072062,-0.03127306939854257,-0.11895347723429711
8.410073837,-1.802735764978202,-3.005145407474364,-0.23931539165442495,0.06458971204227326,-0.08651436344954752,-0.08862936470216244
8.420073837,2.3039796583713943,0.4493643921890871,-0.566747181794687,0.13644090583214452,-0.06709586027197303,-0.10620031806299493
8.428073837,3.139047579985918,1.6033081621058851,-1.0813600483013668,0.10757690691279385,0.00017056684076816194,-0.10586760239326155
8.438073837,2.2531564070793118,2.920723525702771,-0.3680770505834076,0.04222786985726198,0.08083154109135365,-0.10853863297982257
8.448073837,0.04192330253073319,3.026053865272436,0.06028717339180263,-0.036103930582098306,0.11257715958596984,-0.1043504799856736
8.457073837,-2.86604491437326,1.2783634024515624,0.8096288427631537,-0.08127352815737351,0.07231679795532761,-0.08979910089194316
8.467073837,-5.288471744826445,-2.676908576617374,0.21018147827644826,-0.05064405718964265,-0.030932678902549873,-0.06665290170443715
8.476073837,-2.9576697688359976,-3.163708484235206,-0.583439427113447,-0.0261887060671019,-0.09425371323969894,-0.022981135242776906
8.486073837,1.6431026796686077,-0.524580135754233,-0.8941901594100697,0.05782331514421156,-0.08486137877820396,-0.0363734163097862
