t,gx,gy,gz,ax,ay,az
1713723114298147972,-0.21518342196941376,0.037284255027770996,-0.07776430249214172,-0.3770867586135864,-1.6172832250595093,10.012551307678223
1713723114307147972,-0.08415588736534119,-0.04261057823896408,-0.09480853378772736,-3.330334424972534,-6.946775913238525,8.65982723236084
1713723114317147972,-0.01810949482023716,-0.06817692518234253,0.00532632227987051,-0.8583213090896606,-5.191826343536377,9.503783226013184
1713723114326147972,0.1022653877735138,-0.03621898964047432,-0.08628641813993454,3.227383852005005,-0.05746084079146385,10.955866813659668
1713723114336147972,0.03195793181657791,0.055393751710653305,-0.0649811327457428,3.184288263320923,1.4460978507995605,10.924741744995117
1713723114346147972,-0.03302319720387459,0.11824434995651245,-0.10439591109752655,1.6160861253738403,1.5921441316604614,11.871648788452148
1713723114354147972,0.011717909015715122,0.07350324839353561,-0.1161138266324997,-2.871845006942749,-2.033874273300171,9.84376049041748
1713723114364147972,0.014913702383637428,-0.03302319720387459,-0.03941478580236435,-4.395754337310791,-4.346673011779785,8.311470985412598
1713723114373147972,0.10013485699892044,-0.09800432622432709,-0.041545312851667404,-0.6775590777397156,-1.4437036514282227,8.604761123657227
1713723114383147972,0.09587380290031433,-0.07776430249214172,-0.04261057823896408,2.2625205516815186,1.6903064250946045,9.522936820983887
1713723114392147972,0.04580637067556381,-0.00532632227987051,-0.08628641813993454,3.0777461528778076,3.005920171737671,9.84495735168457
1713723114402147972,-0.06391586363315582,0.05752427875995636,-0.07137271761894226,2.279279947280884,3.155557870864868,9.883264541625977
1713723114411147972,-0.1342233121395111,0.08202536404132843,-0.1065264418721199,1.0235211849212646,2.055422067642212,9.730035781860352
1713723114421147972,-0.1395496428012848,0.06391586363315582,-0.08735168725252151,-1.2856862545013428,-0.5734112858772278,9.927556991577148
1713723114430147972,-0.06924218684434891,-0.03195793181657791,-0.11398329585790634,-3.907337188720703,-4.064157485961914,9.691728591918945
1713723114440147972,-0.044741105288267136,-0.0884169489145279,-0.012783173471689224,-1.765723705291748,-3.137601375579834,10.135852813720703
1713723114449147972,0.024501081556081772,-0.07669904083013535,-0.07669904083013535,2.3307552337646484,-0.21308395266532898,10.715249061584473
1713723114459147972,-0.003195793367922306,0.01065264455974102,-0.06391586363315582,3.377021551132202,0.12928688526153564,10.020931243896484
1713723114468147972,-0.022370552644133568,0.08735168725252151,-0.1022653877735138,2.3475146293640137,-0.002394201699644327,10.733205795288086
1713723114478147972,0.026631610468029976,0.07456851005554199,-0.11185276508331299,-1.259350061416626,-2.123656988143921,10.304643630981445
1713723114487147972,0.026631610468029976,0.00532632227987051,-0.05326322093605995,-2.9544448852539062,-3.069366455078125,9.561244010925293
1713723114497147972,0.07563377171754837,-0.04367584362626076,-0.05326322093605995,-0.7230489253997803,-0.9145850539207458,9.348160743713379
1713723114506147972,0.06924218684434891,-0.03941478580236435,-0.05752427875995636,1.0498573780059814,0.834379255771637,9.239224433898926
1713723114515147972,0.047936901450157166,-0.007456851191818714,-0.08415588736534119,1.5897499322891235,1.7070658206939697,9.026140213012695
1713723114526147972,-0.020240023732185364,0.030892668291926384,-0.07776430249214172,1.2677297592163086,2.3343465328216553,9.248801231384277
1713723114535147972,-0.08309062570333481,0.04261057823896408,-0.10759171098470688,0.34356793761253357,2.2840683460235596,9.81263542175293
1713723114544147972,-0.13528858125209808,0.026631610468029976,-0.08948221057653427,-0.8068459630012512,1.1683703660964966,10.370484352111816
1713723114554147972,-0.09693906456232071,-0.044741105288267136,-0.11398329585790634,-2.831143379211426,-2.230198860168457,10.425551414489746
1713723114563147972,-0.08096009492874146,-0.1065264418721199,-0.029827404767274857,-1.9476830959320068,-4.226963043212891,10.08318042755127
1713723114573147972,0.003195793367922306,-0.08735168725252151,-0.03515372797846794,2.361879825592041,-2.472013235092163,10.259154319763184
1713723114582147972,0.04580637067556381,0.015978965908288956,-0.0649811327457428,4.304774761199951,-1.059434175491333,9.645041465759277
1713723114591147972,0.06178533658385277,0.11185276508331299,-0.092678003013134,3.0107085704803467,-0.17956513166427612,9.175777435302734
1713723114601147972,0.024501081556081772,0.14168016612529755,-0.09161274135112762,0.2825157940387726,1.0654197931289673,10.140641212463379
1713723114610147972,0.004261057823896408,0.07350324839353561,-0.10546118021011353,-3.1914708614349365,0.5530605912208557,11.074379920959473
1713723114620147972,-0.015978965908288956,-0.04687163606286049,-0.05645901337265968,-4.507084846496582,-1.3455413579940796,10.040084838867188
1713723114629147972,-0.01810949482023716,-0.12250541150569916,-0.029827404767274857,-1.578976035118103,-1.161187767982483,9.288305282592773
1713723114639147972,0.023435818031430244,-0.10972223430871964,-0.052197955548763275,2.051830768585205,-0.2669534981250763,8.66102409362793
1713723114648147972,0.030892668291926384,-0.02556634694337845,-0.0649811327457428,3.6056675910949707,0.25258827209472656,8.300697326660156
1713723114658147972,0.002130528911948204,0.06072007119655609,-0.09054747968912125,3.224989652633667,1.6376339197158813,9.606734275817871
1713723114668147972,-0.05965480953454971,0.11185276508331299,-0.10546118021011353,1.4209586381912231,2.669534921646118,10.69609546661377
1713723114677147972,-0.13741911947727203,0.092678003013134,-0.1022653877735138,-1.5514426231384277,1.6316484212875366,12.248735427856445
1713723114686147972,-0.07563377171754837,-0.030892668291926384,-0.10013485699892044,-5.052962779998779,-3.840299367904663,11.061211585998535
1713723114696147972,-0.06072007119655609,-0.12357067316770554,0.014913702383637428,-3.2417490482330322,-6.100425720214844,8.701725959777832
1713723114705147972,0.09480853378772736,-0.10972223430871964,-0.03515372797846794,2.2876596450805664,-2.4624364376068115,8.165424346923828
1713723114715147972,0.10439591109752655,-0.017044231295585632,-0.0511326938867569,4.474762916564941,0.5027823448181152,9.040505409240723
1713723114724147972,0.07563377171754837,0.08202536404132843,-0.10120011866092682,3.8127660751342773,2.7090392112731934,10.448295593261719
1713723114733147972,-0.04048004746437073,0.14274543523788452,-0.08948221057653427,1.578976035118103,3.6320040225982666,10.85171890258789
1713723114743147972,-0.14487595856189728,0.11930961906909943,-0.11398329585790634,-1.1528080701828003,2.2661118507385254,11.447875022888184
1713723114753147972,-0.08522115647792816,-0.007456851191818714,-0.09587380290031433,-4.638765811920166,-3.247734546661377,9.106346130371094
1713723114762147972,-0.06285060197114944,-0.09587380290031433,-0.015978965908288956,-3.5877110958099365,-5.2480902671813965,7.781155586242676
1713723114771147972,0.07776430249214172,-0.1065264418721199,-0.0649811327457428,1.4437036514282227,-1.3730746507644653,8.391676902770996
1713723114781147972,0.041545312851667404,-0.04261057823896408,-0.07030745595693588,3.6284127235412598,1.7729063034057617,10.103530883789062
1713723114790147972,-0.02130528911948204,0.04687163606286049,-0.11824434995651245,3.6104559898376465,3.3458967208862305,11.793837547302246
1713723114800147972,-0.14594122767448425,0.11717908829450607,-0.09374327212572098,2.227804660797119,2.5953145027160645,11.4634370803833
1713723114809147972,-0.10333064943552017,0.06924218684434891,-0.14913702011108398,-2.8167781829833984,-3.2776620388031006,10.843338966369629
1713723114819147972,-0.014913702383637428,-0.034088462591171265,-0.041545312851667404,-5.062539577484131,-8.370128631591797,7.709329128265381
1713723114828147972,0.11398329585790634,-0.07669904083013535,-0.026631610468029976,-0.181959331035614,-4.05817174911499,8.416815757751465
1713723114838147972,0.185356006026268,-0.055393751710653305,-0.1022653877735138,3.02986216545105,1.7202339172363281,10.165780067443848
1713723114847147972,0.10120011866092682,0.004261057823896408,-0.1203748807311058,2.867056369781494,3.9396588802337646,10.073603630065918
1713723114857147972,-0.05752427875995636,0.04687163606286049,-0.12676647305488586,2.0661959648132324,4.699817657470703,11.578359603881836
1713723114866147972,-0.1768338978290558,0.05645901337265968,-0.15446333587169647,1.5550339221954346,2.9879636764526367,10.453083992004395
1713723114876147972,-0.222640261054039,0.05965480953454971,-0.14061491191387177,0.5602431893348694,-0.5015852451324463,9.281123161315918
1713723114885147972,-0.08309062570333481,0.001065264455974102,-0.22477079927921295,-2.1045031547546387,-5.602431774139404,7.893682956695557
1713723114894147972,-0.034088462591171265,-0.04367584362626076,-0.1022653877735138,-1.1408370733261108,-5.024232387542725,8.415618896484375
1713723114905147972,0.06604639440774918,-0.05645901337265968,-0.2173139452934265,2.2697031497955322,0.20949263870716095,10.979808807373047
1713723114914147972,-0.008522115647792816,0.00532632227987051,-0.17363810539245605,3.2118215560913086,2.0207061767578125,11.956643104553223
1713723114923147972,-0.09906959533691406,0.06604639440774918,-0.23435817658901215,3.2154128551483154,1.2988543510437012,12.123040199279785
1713723114932147972,-0.03834952041506767,0.07137271761894226,-0.24288028478622437,-0.05626373738050461,-3.3937809467315674,9.989806175231934
1713723114942147972,0.027696875855326653,0.019174760207533836,-0.22583605349063873,-2.232593059539795,-6.496666431427002,7.363367080688477
1713723114951147972,0.14168016612529755,-0.02876213937997818,-0.2173139452934265,0.2908954918384552,-2.742558002471924,7.773972988128662
1713723114962147972,0.14487595856189728,-0.02556634694337845,-0.2727077007293701,2.365471124649048,2.166752576828003,10.132261276245117
1713723114970147972,0.05965480953454971,0.015978965908288956,-0.3004045784473419,2.646790027618408,4.365826606750488,11.024101257324219
1713723114980147972,-0.09480853378772736,0.0511326938867569,-0.2908172011375427,2.163161277770996,4.217386245727539,10.918756484985352
1713723114989147972,-0.19174760580062866,0.08096009492874146,-0.3281014561653137,1.4832079410552979,2.032677173614502,9.849745750427246
1713723114999147972,-0.148071750998497,0.052197955548763275,-0.3206445872783661,-1.8160020112991333,-2.741360902786255,8.759186744689941
1713723115008147972,-0.06178533658385277,-0.04580637067556381,-0.3153182864189148,-4.173093318939209,-6.731297969818115,8.905233383178711
1713723115018147972,0.007456851191818714,-0.07456851005554199,-0.21411815285682678,-0.2777273952960968,-3.441664934158325,11.171344757080078
1713723115027147972,0.06391586363315582,-0.026631610468029976,-0.2972087860107422,3.624821424484253,0.6356605291366577,11.63103199005127
1713723115037147972,0.012783173471689224,0.08735168725252151,-0.27483823895454407,3.5482068061828613,0.46088382601737976,9.889249801635742
1713723115046147972,-0.01065264455974102,0.14913702011108398,-0.3004045784473419,0.730231523513794,-0.5889735817909241,10.268731117248535
1713723115056147972,0.047936901450157166,0.09480853378772736,-0.3110572099685669,-3.0992939472198486,-2.316390037536621,8.711302757263184
1713723115065147972,0.03302319720387459,0.008522115647792816,-0.21198762953281403,-3.40216064453125,-0.8619126081466675,8.65982723236084
1713723115074147972,0.047936901450157166,-0.05752427875995636,-0.2780340313911438,-1.1288660764694214,1.9045873880386353,9.873687744140625
1713723115084147972,-0.034088462591171265,-0.05326322093605995,-0.2130528837442398,0.4357447028160095,2.345120429992676,9.883264541625977
1713723115093147972,-0.10865697264671326,-0.015978965908288956,-0.25672873854637146,1.580173134803772,1.6196774244308472,10.573991775512695
1713723115103147972,-0.10546118021011353,0.03515372797846794,-0.22796659171581268,1.0654197931289673,-0.5051765441894531,9.817423820495605
1713723115113147972,-0.03621898964047432,0.023435818031430244,-0.26631611585617065,-1.1408370733261108,-3.3650503158569336,8.667010307312012
1713723115122147972,-0.023435818031430244,0.001065264455974102,-0.18002969026565552,-0.9971849918365479,-2.4145524501800537,9.641449928283691
1713723115132147972,0.011717909015715122,0.008522115647792816,-0.2183792144060135,0.7003039717674255,0.5482721924781799,11.216835021972656
1713723115141147972,-0.026631610468029976,0.03302319720387459,-0.19600865244865417,-0.34596213698387146,-0.28969839215278625,12.090718269348145
1713723115150147972,0.029827404767274857,-0.006391586735844612,-0.19600865244865417,-2.935291290283203,-4.128800868988037,10.720037460327148
1713723115160147972,0.05326322093605995,-0.03302319720387459,-0.10759171098470688,-1.7369933128356934,-3.866635799407959,9.105149269104004
1713723115169147972,0.16831177473068237,-0.027696875855326653,-0.15978966653347015,1.2988543510437012,-0.2753331959247589,8.078036308288574
1713723115179147972,0.11824434995651245,0.024501081556081772,-0.12889699637889862,1.7776947021484375,1.9488801956176758,8.087613105773926
1713723115188147972,0.04048004746437073,0.07243797928094864,-0.15020228922367096,0.9995791912078857,4.092887878417969,10.08318042755127
1713723115198147972,-0.07669904083013535,0.08948221057653427,-0.1342233121395111,-0.5829880833625793,4.4508209228515625,10.370484352111816
1713723115207147972,-0.18322548270225525,0.05326322093605995,-0.11398329585790634,-2.804807186126709,2.4408886432647705,10.734403610229492
1713723115217147972,-0.12250541150569916,-0.06924218684434891,-0.11504855751991272,-5.2672438621521,-3.044227361679077,9.32541561126709
1713723115226147972,-0.10013485699892044,-0.15233281254768372,0.003195793367922306,-3.2178070545196533,-5.051765441894531,8.328230857849121
1713723115236147972,0.027696875855326653,-0.15020228922367096,-0.07243797928094864,2.2385785579681396,-1.6567875146865845,9.05247688293457
1713723115245147972,-0.001065264455974102,-0.04367584362626076,-0.0511326938867569,4.751293182373047,0.9564835429191589,10.903194427490234
1713723115255147972,-0.03515372797846794,0.0884169489145279,-0.1022653877735138,4.325125217437744,1.6184803247451782,12.030863761901855
1713723115264147972,-0.06178533658385277,0.14487595856189728,-0.09161274135112762,-0.23343466222286224,-1.282094955444336,12.0392427444458
1713723115273147972,0.052197955548763275,0.034088462591171265,-0.09480853378772736,-5.9076924324035645,-7.3669586181640625,10.255562782287598
1713723115283147972,0.09693906456232071,-0.052197955548763275,0.04261057823896408,-4.060565948486328,-5.604825973510742,8.948328971862793
1713723115292147972,0.24714134633541107,-0.10120011866092682,-0.04687163606286049,0.9684545993804932,0.8607155084609985,8.368931770324707
1713723115302147972,0.14700649678707123,-0.0511326938867569,-0.024501081556081772,2.0817582607269287,3.597287893295288,8.4108304977417
1713723115311147972,0.034088462591171265,-0.011717909015715122,-0.07243797928094864,1.6041151285171509,5.258863925933838,10.200495719909668
1713723115321147972,-0.10759171098470688,0.024501081556081772,-0.017044231295585632,1.0342950820922852,4.651933670043945,9.780313491821289
1713723115330147972,-0.22796659171581268,0.041545312851667404,-0.030892668291926384,1.0570399761199951,2.7940332889556885,9.473855972290039
1713723115340147972,-0.24394555389881134,0.06285060197114944,-0.02876213937997818,0.43694180250167847,-0.13527239859104156,9.399635314941406
1713723115349147972,-0.11398329585790634,0.006391586735844612,-0.06285060197114944,-2.7090392112731934,-4.971559524536133,8.370128631591797
1713723115359147972,-0.0788295716047287,-0.044741105288267136,0.02876213937997818,-2.24935245513916,-4.717774391174316,9.370904922485352
1713723115368147972,0.012783173471689224,-0.047936901450157166,-0.013848437927663326,1.3192051649093628,-0.03711012750864029,11.635820388793945
1713723115378147972,-0.07456851005554199,0.007456851191818714,-0.01065264455974102,2.2038626670837402,1.0833762884140015,13.06515884399414
1713723115387147972,-0.007456851191818714,0.003195793367922306,-0.058589544147253036,-0.8583213090896606,-3.5206735134124756,12.267889022827148
1713723115397147972,0.055393751710653305,-0.03941478580236435,0.011717909015715122,-2.7712883949279785,-7.924807548522949,8.734047889709473
1713723115407147972,0.17896442115306854,-0.047936901450157166,0.029827404767274857,0.7649474143981934,-4.133589267730713,8.17380428314209
1713723115416147972,0.25353294610977173,0.00532632227987051,-0.030892668291926384,3.0310592651367188,1.181538462638855,8.597578048706055
1713723115425147972,0.1906823366880417,0.07137271761894226,-0.03515372797846794,1.8854337930679321,4.255693435668945,8.38569164276123
1713723115435147972,0.009587380103766918,0.07989483326673508,-0.03515372797846794,-0.017956512048840523,6.588842868804932,10.087968826293945
1713723115444147972,-0.16511598229408264,0.04580637067556381,-0.034088462591171265,-1.2054805755615234,6.054935932159424,10.652999877929688
1713723115454147972,-0.3004045784473419,0.003195793367922306,0.011717909015715122,-1.3275848627090454,2.9029695987701416,9.66539192199707
1713723115464147972,-0.2130528837442398,-0.08735168725252151,-0.0511326938867569,-3.293224334716797,-3.670311212539673,8.649053573608398
1713723115472147972,-0.14487595856189728,-0.14700649678707123,0.07350324839353561,-2.3738510608673096,-7.1658453941345215,8.324639320373535
1713723115482147972,-0.006391586735844612,-0.11291802674531937,0.008522115647792816,3.138798475265503,-3.1507694721221924,10.384849548339844
1713723115491147972,0.01065264455974102,0.007456851191818714,0.00532632227987051,5.199008941650391,0.19393032789230347,12.40076732635498
1713723115501147972,-0.023435818031430244,0.11930961906909943,-0.055393751710653305,3.711012601852417,0.1759738177061081,12.878410339355469
1713723115510147972,0.05006742849946022,0.10333064943552017,-0.0511326938867569,-2.5725696086883545,-4.651933670043945,10.94030475616455
1713723115520147972,0.09480853378772736,0.007456851191818714,0.012783173471689224,-4.990713596343994,-7.217320919036865,8.523358345031738
1713723115529147972,0.222640261054039,-0.0511326938867569,0.052197955548763275,-0.6045359373092651,-2.2457611560821533,8.31865406036377
1713723115539147972,0.222640261054039,-0.04367584362626076,-0.015978965908288956,1.6196774244308472,2.7078421115875244,8.902838706970215
1713723115549147972,0.148071750998497,0.003195793367922306,-0.017044231295585632,1.40180504322052,5.019443988800049,8.604761123657227
1713723115558147972,-0.047936901450157166,0.015978965908288956,-0.008522115647792816,0.3315969407558441,6.1722517013549805,9.866504669189453
1713723115567147972,-0.18322548270225525,0.014913702383637428,-0.012783173471689224,0.1304839849472046,4.973953723907471,10.289081573486328
1713723115577147972,-0.2972087860107422,0.02130528911948204,0.04580637067556381,0.5410895943641663,2.073378562927246,9.337386131286621
1713723115586147972,-0.22157500684261322,0.003195793367922306,-0.044741105288267136,-1.2485761642456055,-2.823960781097412,9.083600997924805
1713723115596147972,-0.10439591109752655,-0.05965480953454971,0.05645901337265968,-3.5051112174987793,-7.503427982330322,8.550890922546387
1713723115605147972,-0.022370552644133568,-0.07030745595693588,0.06924218684434891,-0.11611878126859665,-4.006696701049805,11.206060409545898
1713723115615147972,0.044741105288267136,-0.009587380103766918,0.04687163606286049,3.4129345417022705,0.7086836695671082,12.744335174560547
1713723115624147972,-0.026631610468029976,0.07989483326673508,0.03621898964047432,2.630030632019043,0.295683890581131,12.431892395019531
1713723115633147972,0.0511326938867569,0.05965480953454971,0.003195793367922306,-2.4181437492370605,-4.495113849639893,10.717643737792969
1713723115643147972,0.0884169489145279,-0.015978965908288956,0.0884169489145279,-4.2951979637146,-6.825869083404541,8.157045364379883
1713723115652147972,0.22050973773002625,-0.06072007119655609,0.092678003013134,-0.2849099934101105,-2.0039467811584473,8.015787124633789
1713723115662147972,0.21411815285682678,-0.037284255027770996,0.055393751710653305,1.7920598983764648,2.6611552238464355,8.803479194641113
1713723115671147972,0.1299622654914856,0.012783173471689224,0.03834952041506767,1.544260025024414,5.0912699699401855,9.157821655273438
1713723115681147972,-0.055393751710653305,0.04048004746437073,0.06711165606975555,0.3100491166114807,5.993884086608887,10.132261276245117
1713723115690147972,-0.19813919067382812,0.03515372797846794,0.05752427875995636,-0.22864626348018646,4.622006416320801,10.38963794708252
1713723115700147972,-0.2822950780391693,0.01810949482023716,0.1022653877735138,-0.7146691679954529,1.0534486770629883,9.950302124023438
1713723115709147972,-0.15126754343509674,-0.06817692518234253,0.01810949482023716,-3.269282341003418,-5.30195951461792,8.425195693969727
1713723115719147972,-0.09800432622432709,-0.1161138266324997,0.1757686287164688,-2.033874273300171,-6.62355899810791,8.26478385925293
1713723115729147972,0.05006742849946022,-0.09054747968912125,0.06285060197114944,3.1423897743225098,-1.6328455209732056,10.688913345336914
1713723115738147972,-0.003195793367922306,0.029827404767274857,0.11078750342130661,4.541800498962402,1.1073182821273804,12.72877311706543
1713723115747147972,-0.03941478580236435,0.10439591109752655,0.020240023732185364,1.8842366933822632,-0.08499415963888168,14.044386863708496
1713723115757147972,0.07030745595693588,0.03621898964047432,0.04687163606286049,-3.580528497695923,-7.015010833740234,10.855310440063477
1713723115766147972,0.10865697264671326,-0.04580637067556381,0.14168016612529755,-3.863044261932373,-8.075642585754395,8.110358238220215
1713723115776147972,0.3014698326587677,-0.07243797928094864,0.09054747968912125,0.7793126106262207,-1.6855180263519287,7.602787494659424
1713723115785147972,0.258859246969223,-0.01810949482023716,0.08628641813993454,2.2577321529388428,2.5893290042877197,8.350975036621094
1713723115795147972,0.2034655064344406,0.026631610468029976,0.02876213937997818,1.2737152576446533,5.191826343536377,8.495824813842773
1713723115804147972,0.002130528911948204,0.04580637067556381,0.1161138266324997,-0.15801730751991272,6.889315128326416,9.209296226501465
1713723115813147972,-0.16618125140666962,0.027696875855326653,0.05326322093605995,-0.6428431272506714,6.314706802368164,10.211270332336426
1713723115823147972,-0.3206445872783661,0.014913702383637428,0.16298545897006989,0.020350713282823563,3.3183634281158447,9.765948295593262
1713723115833147972,-0.2865561246871948,-0.014913702383637428,0.044741105288267136,-1.358709454536438,-2.313995838165283,10.395623207092285
1713723115842147972,-0.11824434995651245,-0.10759171098470688,0.11824434995651245,-3.950432777404785,-9.26675796508789,8.437166213989258
1713723115852147972,-0.022370552644133568,-0.1161138266324997,0.1906823366880417,0.2992752194404602,-6.586448669433594,9.829395294189453
1713723115861147972,0.12463594228029251,-0.02876213937997818,0.07776430249214172,5.088875770568848,-0.243011474609375,12.112266540527344
1713723115871147972,0.04261057823896408,0.1022653877735138,0.12463594228029251,4.242525577545166,1.0678139925003052,11.94946002960205
1713723115880147972,0.004261057823896408,0.148071750998497,0.06711165606975555,0.7398083209991455,-0.6200982332229614,12.905943870544434
1713723115889147972,0.10759171098470688,0.08628641813993454,0.10333064943552017,-3.818751573562622,-5.451597213745117,8.687360763549805
1713723115899147972,0.12889699637889862,0.022370552644133568,0.18429075181484222,-3.579331398010254,-4.231751441955566,6.995857238769531
1713723115908147972,0.2545982003211975,-0.023435818031430244,0.14913702011108398,-0.9828197956085205,1.1563993692398071,7.533355712890625
1713723115918147972,0.1395496428012848,-0.011717909015715122,0.18642127513885498,-0.1256955862045288,4.431667327880859,8.549694061279297
1713723115927147972,0.001065264455974102,0.008522115647792816,0.15552860498428345,0.32441431283950806,6.314706802368164,11.112687110900879
1713723115937147972,-0.15978966653347015,0.029827404767274857,0.2034655064344406,0.2669534981250763,4.950011730194092,10.166976928710938
1713723115946147972,-0.25353294610977173,0.029827404767274857,0.18748654425144196,-0.7003039717674255,1.1635819673538208,10.234015464782715
1713723115955147972,-0.10972223430871964,-0.04580637067556381,0.1810949593782425,-4.018667697906494,-5.985504150390625,9.08719253540039
1713723115965147972,-0.055393751710653305,-0.10546118021011353,0.296143501996994,-3.0968997478485107,-7.606378555297852,8.921992301940918
1713723115975147972,0.10759171098470688,-0.08735168725252151,0.22370553016662598,2.205059766769409,-1.9596540927886963,10.281899452209473
1713723115984147972,0.06817692518234253,0.01065264455974102,0.23435817658901215,3.801992177963257,1.180341362953186,11.342530250549316
1713723115994147972,0.024501081556081772,0.09054747968912125,0.16937704384326935,2.9496564865112305,1.577778935432434,11.086350440979004
1713723116003147972,-0.029827404767274857,0.1299622654914856,0.22796659171581268,-0.06224924325942993,-0.04908113554120064,10.976217269897461
1713723116013147972,0.04687163606286049,0.04261057823896408,0.16618125140666962,-4.612429618835449,-4.294000625610352,9.838972091674805
1713723116022147972,0.05326322093605995,-0.044741105288267136,0.32597091794013977,-3.95641827583313,-3.9695863723754883,8.652645111083984
1713723116032147972,0.1533980816602707,-0.08628641813993454,0.2322276532649994,0.32202011346817017,0.30526071786880493,8.766369819641113
1713723116041147972,0.09161274135112762,-0.03515372797846794,0.28122982382774353,2.008735179901123,2.27209734916687,8.87410831451416
1713723116051147972,0.022370552644133568,0.024501081556081772,0.222640261054039,2.169146776199341,3.44765043258667,9.962272644042969
1713723116060147972,-0.07137271761894226,0.07456851005554199,0.250337153673172,1.2880804538726807,3.246537446975708,9.458293914794922
1713723116069147972,-0.16085493564605713,0.08096009492874146,0.23329290747642517,-0.4836287498474121,1.7980453968048096,10.793061256408691
1713723116079147972,-0.08735168725252151,-0.015978965908288956,0.21411815285682678,-4.431667327880859,-3.5613749027252197,11.050437927246094
1713723116088147972,-0.05645901337265968,-0.13209278881549835,0.3206445872783661,-4.771644115447998,-7.132326602935791,9.964667320251465
1713723116098147972,0.06391586363315582,-0.15020228922367096,0.29933929443359375,1.6112977266311646,-3.7840356826782227,10.140641212463379
1713723116107147972,0.1342233121395111,-0.04580637067556381,0.25672873854637146,5.442020416259766,-0.7314286231994629,9.162610054016113
1713723116117147972,0.13635385036468506,0.09374327212572098,0.1992044448852539,4.839878559112549,0.7565677165985107,8.554482460021973
1713723116126147972,0.0649811327457428,0.19174760580062866,0.2087918221950531,1.9129670858383179,2.7748796939849854,9.876081466674805
1713723116136147972,-0.03621898964047432,0.16618125140666962,0.17044231295585632,-2.0590133666992188,3.575740098953247,10.975020408630371
1713723116145147972,-0.08096009492874146,0.015978965908288956,0.22477079927921295,-5.480327606201172,0.5015852451324463,11.002553939819336
1713723116154147972,-0.0788295716047287,-0.13635385036468506,0.258859246969223,-5.160701751708984,-3.9624037742614746,9.397241592407227
1713723116164147972,-0.024501081556081772,-0.16831177473068237,0.28549087047576904,0.04668693244457245,-3.315969228744507,8.975861549377441
1713723116173147972,0.08309062570333481,-0.10759171098470688,0.21624867618083954,4.066551685333252,-0.7829039692878723,8.671798706054688
1713723116183147972,0.05645901337265968,0.011717909015715122,0.21518342196941376,4.4292731285095215,0.7697358131408691,9.354146003723145
1713723116192147972,-0.002130528911948204,0.09906959533691406,0.17470337450504303,2.9269115924835205,2.3056161403656006,11.6430025100708
1713723116202147972,-0.07669904083013535,0.1022653877735138,0.16405072808265686,-0.20709843933582306,1.2437877655029297,11.996147155761719
1713723116211147972,-0.014913702383637428,-0.008522115647792816,0.13528858125209808,-4.112041473388672,-4.006696701049805,10.360907554626465
1713723116221147972,-0.002130528911948204,-0.09906959533691406,0.24394555389881134,-2.935291290283203,-5.285200119018555,8.767566680908203
1713723116231147972,0.13741911947727203,-0.10865697264671326,0.17044231295585632,1.7920598983764648,-1.3299790620803833,8.38688850402832
1713723116240147972,0.10759171098470688,-0.02876213937997818,0.16298545897006989,3.6044704914093018,1.2282254695892334,9.192537307739258
1713723116249147972,0.06072007119655609,0.04367584362626076,0.10120011866092682,3.0980968475341797,2.9975404739379883,10.340557098388672
1713723116259147972,-0.049002163112163544,0.07776430249214172,0.10865697264671326,1.525106430053711,3.227383852005005,10.029311180114746
1713723116268147972,-0.13315805792808533,0.06604639440774918,0.07669904083013535,-0.0802057534456253,1.8279730081558228,9.75397777557373
1713723116278147972,-0.09161274135112762,-0.009587380103766918,0.08948221057653427,-2.3307552337646484,-1.9847931861877441,9.150638580322266
1713723116288147972,-0.06285060197114944,-0.07137271761894226,0.1257012039422989,-2.2014684677124023,-3.845087766647339,9.154230117797852
1713723116297147972,0.00532632227987051,-0.08309062570333481,0.1022653877735138,1.115697979927063,-1.4664485454559326,10.417171478271484
1713723116306147972,-0.001065264455974102,-0.0511326938867569,0.07563377171754837,3.021482467651367,0.1951274424791336,11.628637313842773
1713723116316147972,-0.02130528911948204,-0.004261057823896408,0.020240023732185364,3.3482909202575684,-0.22505494952201843,11.02051067352295
1713723116325147972,0.01065264455974102,0.02130528911948204,0.002130528911948204,1.8387469053268433,-2.628833532333374,9.823409080505371
1713723116334147972,0.05432848632335663,0.02876213937997818,-0.008522115647792816,0.5183446407318115,-3.909731388092041,9.114726066589355
1713723116345147972,0.12144014239311218,0.04367584362626076,0.01065264455974102,1.0187327861785889,-1.6519991159439087,9.051279067993164
1713723116353147972,0.12676647305488586,0.0511326938867569,-0.044741105288267136,0.8248024582862854,0.9696516990661621,9.637858390808105
1713723116363147972,0.0788295716047287,0.03621898964047432,-0.029827404767274857,-0.16160860657691956,2.4576480388641357,9.465476036071777
1713723116373147972,-0.022370552644133568,0.004261057823896408,-0.04580637067556381,-0.6727706789970398,3.0406360626220703,9.898826599121094
1713723116382147972,-0.09800432622432709,-0.03195793181657791,-0.05965480953454971,-0.4489127993583679,2.2457611560821533,10.285490036010742
1713723116391147972,-0.12783172726631165,-0.04687163606286049,-0.05006742849946022,0.36990416049957275,0.424970805644989,9.26915168762207
1713723116401147972,-0.1022653877735138,-0.04367584362626076,-0.07989483326673508,0.9050082564353943,-1.6376339197158813,8.656235694885254
1713723116410147972,-0.052197955548763275,-0.023435818031430244,-0.07350324839353561,1.1240776777267456,-2.473210334777832,8.919598579406738
1713723116420147972,-0.029827404767274857,0.004261057823896408,-0.09587380290031433,1.400607943534851,-1.1743558645248413,11.100715637207031
1713723116429147972,-0.001065264455974102,0.003195793367922306,-0.12463594228029251,0.26575639843940735,-1.2988543510437012,12.6737060546875
1713723116439147972,0.014913702383637428,-0.04367584362626076,-0.12676647305488586,-1.1695674657821655,-3.7684733867645264,11.690886497497559
1713723116448147972,0.04580637067556381,-0.06285060197114944,-0.08096009492874146,0.590170681476593,-3.9624037742614746,10.39083480834961
1713723116457147972,0.1299622654914856,-0.01810949482023716,-0.13528858125209808,3.490746021270752,-2.2625205516815186,8.801085472106934
1713723116467147972,0.16405072808265686,0.0649811327457428,-0.15126754343509674,3.6739025115966797,-0.6751648783683777,8.200140953063965
1713723116477147972,0.17470337450504303,0.11504855751991272,-0.19281286001205444,1.6891093254089355,1.4544775485992432,8.197746276855469
1713723116486147972,0.09800432622432709,0.09800432622432709,-0.185356006026268,-0.7529764175415039,3.7696704864501953,8.667010307312012
1713723116496147972,-0.03515372797846794,0.027696875855326653,-0.19281286001205444,-2.2373814582824707,5.207388401031494,10.314220428466797
1713723116505147972,-0.15872439742088318,-0.055393751710653305,-0.19174760580062866,-1.8986018896102905,4.199429512023926,10.378864288330078
1713723116515147972,-0.2556634545326233,-0.09800432622432709,-0.17470337450504303,-0.5099649429321289,1.0989385843276978,10.600327491760254
1713723116525147972,-0.1533980816602707,-0.13741911947727203,-0.21624867618083954,-0.2537853717803955,-4.684255599975586,10.000580787658691
1713723116534147972,-0.041545312851667404,-0.07669904083013535,-0.13848437368869781,2.8179752826690674,-7.885303020477295,8.239645004272461
1713723116543147972,0.08202536404132843,0.007456851191818714,-0.2727077007293701,5.195417404174805,-3.845087766647339,9.907206535339355
1713723116553147972,0.11930961906909943,0.09906959533691406,-0.23542344570159912,3.1507694721221924,0.5255272388458252,11.614272117614746
1713723116562147972,0.07030745595693588,0.1203748807311058,-0.33129724860191345,1.2629413604736328,1.7633295059204102,10.96664047241211
1713723116571147972,-0.015978965908288956,0.08096009492874146,-0.25779399275779724,-1.942894697189331,0.5434837937355042,11.256339073181152
1713723116581147972,0.014913702383637428,-0.041545312851667404,-0.3099919557571411,-4.304774761199951,-3.044227361679077,10.043676376342773
1713723116590147972,0.02876213937997818,-0.10546118021011353,-0.18322548270225525,-1.4449007511138916,-3.0310592651367188,8.437166213989258
1713723116600147972,0.12144014239311218,-0.09800432622432709,-0.29507824778556824,2.7305870056152344,-0.41539397835731506,7.864952564239502
1713723116609147972,0.09693906456232071,-0.014913702383637428,-0.2545982003211975,3.800795078277588,1.358709454536438,8.47906494140625
1713723116619147972,0.03302319720387459,0.05432848632335663,-0.333427757024765,3.0154969692230225,3.400963544845581,10.572794914245605
1713723116628147972,-0.08415588736534119,0.09800432622432709,-0.2972087860107422,1.4508862495422363,3.7181951999664307,11.42752456665039
1713723116638147972,-0.1768338978290558,0.09374327212572098,-0.3110572099685669,-1.2701239585876465,1.0342950820922852,12.593501091003418
1713723116647147972,-0.04367584362626076,-0.014913702383637428,-0.31212249398231506,-5.2672438621521,-6.710947036743164,9.759963035583496
1713723116657147972,0.00532632227987051,-0.09800432622432709,-0.15659387409687042,-3.2632968425750732,-8.210914611816406,7.560888767242432
1713723116667147972,0.21624867618083954,-0.092678003013134,-0.27590349316596985,2.5318682193756104,-1.8722656965255737,8.438364028930664
1713723116675147972,0.1896170675754547,0.004261057823896408,-0.23755396902561188,3.537432909011841,2.070984363555908,9.228450775146484
1713723116685147972,0.11930961906909943,0.07350324839353561,-0.30360037088394165,2.1308395862579346,4.502296447753906,10.14902114868164
1713723116694147972,-0.05326322093605995,0.10439591109752655,-0.23861923813819885,0.48602294921875,5.521028995513916,10.794258117675781
1713723116704147972,-0.19600865244865417,0.09800432622432709,-0.27057716250419617,-0.6428431272506714,4.041412353515625,10.674548149108887
1713723116713147972,-0.20133498311042786,0.03621898964047432,-0.2460760921239853,-3.817554473876953,-1.2868833541870117,9.848548889160156
1713723116724147972,-0.09693906456232071,-0.10013485699892044,-0.21944446861743927,-5.645527362823486,-7.593210697174072,9.074024200439453
1713723116735263076,-0.013848437927663326,-0.12250541150569916,-0.10865697264671326,-0.5039794445037842,-5.372588634490967,10.046070098876953
1713723116745263076,0.11824434995651245,-0.05752427875995636,-0.20559602975845337,4.10246467590332,-0.23582886159420013,10.625467300415039
1713723116754263076,0.06817692518234253,0.07350324839353561,-0.16405072808265686,4.094084739685059,0.8056488633155823,10.071208953857422
1713723116764263076,0.029827404767274857,0.16937704384326935,-0.18748654425144196,2.0697872638702393,1.3838485479354858,10.371681213378906
1713723116773263076,0.023435818031430244,0.16618125140666962,-0.1906823366880417,-2.275688648223877,0.09696516394615173,9.775525093078613
1713723116783263076,0.030892668291926384,0.06285060197114944,-0.11398329585790634,-5.238513469696045,-1.6699556112289429,9.159018516540527
1713723116793263076,0.017044231295585632,-0.023435818031430244,-0.1065264418721199,-3.823539972305298,-0.22625206410884857,9.319430351257324
1713723116802263076,0.02556634694337845,-0.07137271761894226,-0.058589544147253036,-1.6160861253738403,1.7310078144073486,9.39484691619873
1713723116811263076,-0.030892668291926384,-0.06924218684434891,-0.08735168725252151,0.005985504016280174,1.7190368175506592,9.009381294250488
1713723116820263076,-0.0649811327457428,-0.02556634694337845,-0.04367584362626076,1.016338586807251,1.4401123523712158,9.455899238586426
1713723116830263076,-0.09054747968912125,0.015978965908288956,-0.08202536404132843,0.9516951441764832,0.9313444495201111,9.647435188293457
1713723116839263076,-0.08309062570333481,0.01810949482023716,-0.055393751710653305,-0.7972691655158997,-0.6380547285079956,10.811017990112305
1713723116850263076,-0.04367584362626076,-0.041545312851667404,-0.05645901337265968,-3.228580951690674,-3.7708675861358643,11.781866073608398
1713723116859263076,-0.011717909015715122,-0.08628641813993454,0.03621898964047432,-1.7824831008911133,-4.473565578460693,11.21444034576416
1713723116868263076,0.05326322093605995,-0.04580637067556381,0.017044231295585632,1.9393033981323242,-2.3247697353363037,10.273519515991211
1713723116878263076,0.10972223430871964,0.03941478580236435,0.002130528911948204,2.8562824726104736,-1.1504138708114624,8.774748802185059
1713723116887263076,0.13209278881549835,0.10439591109752655,-0.008522115647792816,1.1851298809051514,-0.1496376097202301,7.948749542236328
1713723116896263076,0.10759171098470688,0.10546118021011353,-0.004261057823896408,-1.2222399711608887,1.8938134908676147,8.923189163208008
1713723116907263076,0.03195793181657791,0.05006742849946022,0.015978965908288956,-2.9939491748809814,3.554192304611206,9.979032516479492
1713723116915263076,-0.08096009492874146,-0.03195793181657791,0.03621898964047432,-3.228580951690674,3.5434184074401855,10.465055465698242
1713723116925263076,-0.15233281254768372,-0.09480853378772736,0.0649811327457428,-1.9632453918457031,1.667561411857605,10.050858497619629
1713723116934263076,-0.13102751970291138,-0.1257012039422989,0.06285060197114944,-0.6584054827690125,-1.6831237077713013,8.92917537689209
1713723116944263076,-0.0884169489145279,-0.10013485699892044,0.08415588736534119,1.2473790645599365,-3.114856243133545,8.669404029846191
1713723116953263076,-0.014913702383637428,-0.03302319720387459,0.04580637067556381,3.2118215560913086,-1.6148890256881714,9.628281593322754
1713723116963263076,-0.012783173471689224,0.04687163606286049,0.034088462591171265,2.8826189041137695,-0.18076223134994507,11.174936294555664
1713723116972263076,0.009587380103766918,0.05326322093605995,-0.01065264455974102,-0.2322375625371933,-1.4125789403915405,12.234370231628418
1713723116982263076,0.029827404767274857,-0.014913702383637428,0.03941478580236435,-3.0813374519348145,-4.416104793548584,11.584344863891602
1713723116992263076,0.05752427875995636,-0.058589544147253036,0.08522115647792816,-0.8655039072036743,-3.5709517002105713,10.348937034606934
1713723117001263076,0.1533980816602707,-0.027696875855326653,0.04367584362626076,2.40736985206604,-1.0330979824066162,8.183381080627441
1713723117010263076,0.14700649678707123,0.04367584362626076,0.026631610468029976,2.451662540435791,0.606930136680603,7.597999095916748
1713723117020263076,0.11398329585790634,0.08948221057653427,0.017044231295585632,0.9181763529777527,2.9436709880828857,9.048885345458984
1713723117029263076,0.00532632227987051,0.08415588736534119,0.017044231295585632,-1.0893617868423462,4.492719650268555,10.02811336517334
1713723117039263076,-0.1257012039422989,0.02876213937997818,0.03941478580236435,-2.4229321479797363,4.017470359802246,10.641029357910156
1713723117048263076,-0.1768338978290558,-0.0511326938867569,0.055393751710653305,-3.026270866394043,0.751779317855835,10.436325073242188
1713723117057263076,-0.11824434995651245,-0.13209278881549835,0.07243797928094864,-3.0849287509918213,-3.8762125968933105,8.815450668334961
1713723117067263076,-0.07243797928094864,-0.1395496428012848,0.12357067316770554,0.20709843933582306,-3.840299367904663,8.979453086853027
1713723117076263076,0.024501081556081772,-0.07776430249214172,0.04687163606286049,3.9025487899780273,-1.0007762908935547,10.159794807434082
1713723117087263076,0.004261057823896408,0.026631610468029976,0.0511326938867569,3.977966070175171,0.10175357013940811,10.599130630493164
1713723117095263076,-0.020240023732185364,0.08415588736534119,-0.004261057823896408,1.8770540952682495,0.19033902883529663,11.945869445800781
1713723117105263076,0.03302319720387459,0.04580637067556381,-0.006391586735844612,-2.342726230621338,-3.045424461364746,11.109095573425293
1713723117115263076,0.04048004746437073,-0.03302319720387459,0.07350324839353561,-3.315969228744507,-4.477157115936279,9.566032409667969
1713723117124263076,0.11824434995651245,-0.06711165606975555,0.06178533658385277,-0.06344634294509888,-1.4987702369689941,9.023746490478516
1713723117133263076,0.12463594228029251,-0.03941478580236435,0.04580637067556381,1.7788918018341064,0.8487445116043091,8.860939979553223
1713723117143263076,0.10546118021011353,0.009587380103766918,0.030892668291926384,1.9788076877593994,2.273294448852539,8.617928504943848
1713723117152263076,0.012783173471689224,0.05965480953454971,0.05006742849946022,1.1959037780761719,3.5901052951812744,9.259574890136719
1713723117162263076,-0.08735168725252151,0.06817692518234253,0.024501081556081772,-0.15322890877723694,3.706224203109741,10.135852813720703
1713723117171263076,-0.16618125140666962,0.041545312851667404,0.07137271761894226,-1.304839849472046,2.140416383743286,10.15141487121582
1713723117181263076,-0.12144014239311218,-0.03621898964047432,0.03941478580236435,-3.4560301303863525,-2.115277051925659,9.494206428527832
1713723117190263076,-0.092678003013134,-0.11291802674531937,0.11717908829450607,-3.332728624343872,-4.888959884643555,9.479841232299805
1713723117200263076,-0.02130528911948204,-0.12783172726631165,0.10865697264671326,1.194706678390503,-2.4803929328918457,10.945093154907227
1713723117209263076,0.012783173471689224,-0.05326322093605995,0.06817692518234253,4.490325450897217,-0.5434837937355042,11.100715637207031
1713723117218263076,0.01065264455974102,0.05965480953454971,0.034088462591171265,4.290409564971924,-0.7493851184844971,10.220847129821777
1713723117229263076,0.047936901450157166,0.11291802674531937,0.013848437927663326,0.9971849918365479,-2.072181463241577,10.121487617492676
1713723117237263076,0.08522115647792816,0.08522115647792816,0.022370552644133568,-2.3965959548950195,-2.9269115924835205,9.488221168518066
1713723117247263076,0.09693906456232071,0.03195793181657791,0.08202536404132843,-2.5127146244049072,-0.5434837937355042,9.613916397094727
1713723117257263076,0.092678003013134,-0.027696875855326653,0.04261057823896408,-1.5047557353973389,1.8638859987258911,9.708487510681152
1713723117266263076,0.029827404767274857,-0.055393751710653305,0.08415588736534119,-0.730231523513794,2.432508945465088,9.05247688293457
1713723117275263076,-0.052197955548763275,-0.05645901337265968,0.07030745595693588,0.43694180250167847,2.454056739807129,9.640253067016602
1713723117285263076,-0.09480853378772736,-0.026631610468029976,0.07350324839353561,1.4712369441986084,1.460463047027588,9.533711433410645
1713723117294263076,-0.11291802674531937,0.022370552644133568,0.07776430249214172,1.6615759134292603,0.12689268589019775,9.133879661560059
1713723117304263076,-0.06604639440774918,0.03621898964047432,0.041545312851667404,-0.4752490222454071,-1.945288896560669,10.038887977600098
1713723117313263076,-0.015978965908288956,-0.017044231295585632,0.06817692518234253,-3.205836057662964,-3.974374771118164,10.948683738708496
1713723117323263076,0.0,-0.07669904083013535,0.10759171098470688,-1.5885528326034546,-2.425326347351074,11.410764694213867
1713723117332263076,0.049002163112163544,-0.08628641813993454,0.0649811327457428,1.8914192914962769,-0.4752490222454071,10.18613052368164
1713723117342263076,0.04048004746437073,-0.022370552644133568,0.0649811327457428,3.223792552947998,-0.4357447028160095,8.832209587097168
1713723117351263076,0.04367584362626076,0.05645901337265968,0.03515372797846794,2.8419172763824463,0.07422025501728058,9.046490669250488
1713723117361263076,0.02876213937997818,0.10546118021011353,0.02876213937997818,1.0067617893218994,0.9672574996948242,9.405621528625488
1713723117370263076,-0.013848437927663326,0.09054747968912125,0.03302319720387459,-1.5550339221954346,1.40180504322052,10.396821022033691
1713723117380263076,-0.017044231295585632,0.0,0.03834952041506767,-3.9923312664031982,-0.31364041566848755,10.341753959655762
1713723117389263076,-0.041545312851667404,-0.09480853378772736,0.1065264418721199,-3.4799721240997314,-1.4077905416488647,9.550470352172852
1713723117399263076,-0.001065264455974102,-0.1342233121395111,0.07989483326673508,-0.013168109580874443,-0.5530605912208557,9.050082206726074
1713723117408263076,-0.00532632227987051,-0.08309062570333481,0.092678003013134,2.5701754093170166,0.06464344263076782,9.252392768859863
1713723117418263076,-0.002130528911948204,0.00532632227987051,0.05432848632335663,3.1914708614349365,0.6464344263076782,9.673771858215332
1713723117427263076,-0.047936901450157166,0.08096009492874146,0.05326322093605995,2.006340980529785,1.1336544752120972,10.339360237121582
1713723117437263076,-0.044741105288267136,0.06285060197114944,0.023435818031430244,-1.8363527059555054,-0.8798691034317017,11.662156105041504
1713723117446263076,-0.006391586735844612,-0.05006742849946022,0.07350324839353561,-4.771644115447998,-4.6806640625,10.566808700561523
1713723117455263076,0.026631610468029976,-0.11824434995651245,0.13315805792808533,-1.3970166444778442,-3.4117374420166016,9.676165580749512
1713723117465263076,0.12144014239311218,-0.09587380290031433,0.06604639440774918,3.132812976837158,-0.27892449498176575,8.735244750976562
1713723117475263076,0.09587380290031433,0.006391586735844612,0.07776430249214172,3.9228994846343994,1.1264718770980835,8.218096733093262
1713723117484263076,0.022370552644133568,0.09480853378772736,0.029827404767274857,2.653972625732422,3.045424461364746,10.498574256896973
1713723117494263076,-0.06924218684434891,0.12357067316770554,0.04367584362626076,0.13287819921970367,3.3446996212005615,11.136629104614258
1713723117503263076,-0.11078750342130661,0.047936901450157166,0.03621898964047432,-3.733757495880127,-0.05147533491253853,11.104307174682617
1713723117512263076,-0.05752427875995636,-0.08628641813993454,0.10546118021011353,-5.367800235748291,-5.134365558624268,9.388861656188965
1713723117522263076,0.004261057823896408,-0.13209278881549835,0.13528858125209808,-0.894234299659729,-3.9863457679748535,8.300697326660156
1713723117531263076,0.11504855751991272,-0.08735168725252151,0.092678003013134,3.3854012489318848,0.023942016065120697,8.416815757751465
1713723117541263076,0.06391586363315582,0.01810949482023716,0.07350324839353561,3.736151695251465,2.050633668899536,9.494206428527832
1713723117550263076,-0.022370552644133568,0.1065264418721199,0.0649811327457428,2.3068132400512695,3.622427225112915,11.804611206054688
1713723117559263076,-0.11930961906909943,0.10439591109752655,0.04580637067556381,-1.1097124814987183,2.0422539710998535,12.33133602142334
1713723117569263076,-0.047936901450157166,-0.034088462591171265,0.06072007119655609,-5.21217679977417,-4.448426723480225,10.226832389831543
1713723117579263076,-0.022370552644133568,-0.12889699637889862,0.15233281254768372,-3.428496837615967,-6.538564682006836,7.888894557952881
1713723117588263076,0.15126754343509674,-0.12889699637889862,0.09693906456232071,2.2912509441375732,-1.8483237028121948,7.838616371154785
1713723117598263076,0.13635385036468506,-0.03834952041506767,0.07776430249214172,3.998316764831543,1.4652514457702637,9.153033256530762
1713723117607263076,0.07776430249214172,0.05432848632335663,0.04687163606286049,3.0166940689086914,3.670311212539673,10.824185371398926
1713723117617263076,-0.06178533658385277,0.11185276508331299,0.08415588736534119,1.4891934394836426,4.353855609893799,11.334150314331055
1713723117626263076,-0.1906823366880417,0.10972223430871964,0.07137271761894226,-0.2106897532939911,2.428917646408081,11.501745223999023
1713723117635263076,-0.08948221057653427,0.006391586735844612,0.05432848632335663,-4.122815132141113,-4.553771495819092,8.6275053024292
1713723117645263076,-0.034088462591171265,-0.07563377171754837,0.16085493564605713,-4.264073371887207,-7.480682849884033,7.293935298919678
1713723117654263076,0.14274543523788452,-0.09054747968912125,0.10865697264671326,0.9756371974945068,-2.0039467811584473,8.876502990722656
1713723117664263076,0.1022653877735138,-0.019174760207533836,0.1022653877735138,3.205836057662964,2.8407201766967773,11.437101364135742
1713723117673263076,0.015978965908288956,0.05432848632335663,0.04048004746437073,2.4803929328918457,4.370615005493164,12.289437294006348
1713723117683263076,-0.14913702011108398,0.07669904083013535,0.092678003013134,0.8188169598579407,2.847902774810791,10.735600471496582
1713723117692263076,-0.092678003013134,-0.013848437927663326,0.006391586735844612,-3.490746021270752,-3.6595373153686523,9.719261169433594
1713723117701263076,-0.01810949482023716,-0.09906959533691406,0.14700649678707123,-4.061763286590576,-8.002618789672852,7.667430877685547
1713723117711263076,0.148071750998497,-0.10333064943552017,0.10865697264671326,1.4425065517425537,-3.5266590118408203,8.164227485656738
1713723117721263076,0.19387812912464142,-0.027696875855326653,0.07350324839353561,3.772064685821533,1.4460978507995605,9.947907447814941
1713723117730263076,0.12889699637889862,0.055393751710653305,0.05006742849946022,2.7066450119018555,4.129997730255127,10.36689281463623
1713723117740263076,-0.03834952041506767,0.09800432622432709,0.08096009492874146,1.1180921792984009,5.503072738647461,11.528080940246582
1713723117749263076,-0.185356006026268,0.08735168725252151,0.06604639440774918,0.0011971008498221636,3.865438461303711,11.037269592285156
1713723117758263076,-0.19387812912464142,0.04048004746437073,0.08202536404132843,-2.579752206802368,-1.578976035118103,9.41519832611084
1713723117768263076,-0.07137271761894226,-0.06924218684434891,0.07776430249214172,-4.687846660614014,-7.5213847160339355,7.9164276123046875
1713723117777263076,0.020240023732185364,-0.09587380290031433,0.1810949593782425,-0.6823474764823914,-4.607641220092773,9.066842079162598
1713723117787263076,0.11504855751991272,-0.05645901337265968,0.05752427875995636,3.4584243297576904,1.157596468925476,11.413159370422363
1713723117797263076,0.029827404767274857,0.037284255027770996,0.092678003013134,3.3423054218292236,2.1978771686553955,11.23479175567627
1713723117806263076,-0.07243797928094864,0.08202536404132843,0.04367584362626076,2.096123456954956,1.6891093254089355,11.370063781738281
1713723117815263076,-0.01810949482023716,0.055393751710653305,0.022370552644133568,-1.3862427473068237,-2.499546527862549,9.787496566772461
1713723117825263076,0.02556634694337845,-0.009587380103766918,0.0884169489145279,-3.1304187774658203,-5.093664169311523,7.734468460083008
1713723117834263076,0.12889699637889862,-0.0511326938867569,0.06391586363315582,-0.4513069987297058,-1.8171991109848022,8.159439086914062
1713723117844263076,0.1257012039422989,-0.03515372797846794,0.07669904083013535,1.4652514457702637,2.1559786796569824,9.692925453186035
1713723117853263076,0.04261057823896408,-0.001065264455974102,0.019174760207533836,1.8830395936965942,4.095282077789307,10.412383079528809
1713723117863263076,-0.09693906456232071,0.03302319720387459,0.06072007119655609,1.578976035118103,4.037821292877197,10.710460662841797
1713723117872263076,-0.19281286001205444,0.04261057823896408,0.0,0.973242998123169,1.8387469053268433,10.60272216796875
1713723117882263076,-0.09480853378772736,-0.004261057823896408,0.02556634694337845,-2.322375535964966,-4.145560264587402,9.150638580322266
1713723117891263076,-0.030892668291926384,-0.06178533658385277,0.05965480953454971,-2.9867665767669678,-6.937199115753174,8.701725959777832
1713723117901263076,0.10013485699892044,-0.06711165606975555,0.06817692518234253,1.2318167686462402,-2.382230758666992,10.171765327453613
1713723117910263076,0.08948221057653427,-0.012783173471689224,0.02130528911948204,3.137601375579834,1.4125789403915405,11.671732902526855
1713723117920263076,0.02876213937997818,0.04687163606286049,-0.014913702383637428,2.7090392112731934,2.0207061767578125,10.971428871154785
1713723117929263076,-0.055393751710653305,0.07989483326673508,0.002130528911948204,1.2282254695892334,1.0079588890075684,9.947907447814941
1713723117939263076,-0.001065264455974102,0.037284255027770996,-0.05965480953454971,-1.7920598983764648,-2.2457611560821533,8.900444984436035
1713723117948263076,0.020240023732185364,-0.013848437927663326,0.04048004746437073,-2.699462413787842,-3.2154128551483154,8.473079681396484
1713723117958263076,0.09906959533691406,-0.052197955548763275,-0.020240023732185364,-0.45489832758903503,-0.30286651849746704,9.066842079162598
1713723117967263076,0.06072007119655609,-0.044741105288267136,0.024501081556081772,0.6919242739677429,2.0410568714141846,9.817423820495605
1713723117977263076,-0.012783173471689224,-0.029827404767274857,-0.027696875855326653,1.1540051698684692,3.0980968475341797,10.717643737792969
1713723117986263076,-0.10759171098470688,0.0,0.011717909015715122,1.4712369441986084,2.4025814533233643,10.710460662841797
1713723117995263076,-0.13741911947727203,0.02130528911948204,-0.02130528911948204,0.5638344883918762,-0.4129997789859772,11.174936294555664
1713723118005263076,-0.026631610468029976,-0.009587380103766918,-0.020240023732185364,-1.845929503440857,-5.125985622406006,9.436745643615723
1713723118014263076,0.01810949482023716,-0.022370552644133568,0.05432848632335663,-1.337161660194397,-4.873397350311279,8.835801124572754
1713723118025263076,0.12676647305488586,-0.020240023732185364,-0.01065264455974102,1.1875240802764893,-0.5267243385314941,9.795876502990723
1713723118033263076,0.06604639440774918,0.015978965908288956,0.017044231295585632,1.2892775535583496,1.6555904150009155,10.675745010375977
1713723118043263076,0.00532632227987051,0.02556634694337845,-0.030892668291926384,0.6500257253646851,2.145204782485962,11.002553939819336
1713723118053263076,-0.0511326938867569,0.024501081556081772,0.008522115647792816,-0.02992752008140087,0.9624690413475037,9.289502143859863
1713723118062263076,-0.044741105288267136,-0.014913702383637428,-0.02130528911948204,-0.9157821536064148,-1.2629413604736328,8.689754486083984
1713723118071263076,-0.01810949482023716,-0.034088462591171265,0.017044231295585632,-0.6236895322799683,-2.029085874557495,9.051279067993164
1713723118081263076,0.03515372797846794,-0.027696875855326653,-0.003195793367922306,0.6560112833976746,-0.7254431247711182,9.370904922485352
1713723118090263076,0.030892668291926384,-0.006391586735844612,0.001065264455974102,1.0558428764343262,0.5374982953071594,9.821015357971191
1713723118100263076,0.0,0.013848437927663326,-0.011717909015715122,0.6739677786827087,1.3443442583084106,10.234015464782715
1713723118110263076,-0.052197955548763275,0.022370552644133568,-0.009587380103766918,0.03950432687997818,1.2617442607879639,10.278307914733887
1713723118118263076,-0.05752427875995636,0.001065264455974102,-0.014913702383637428,-1.0881646871566772,-0.42856210470199585,10.098742485046387
1713723118128263076,-0.03195793181657791,-0.03621898964047432,0.004261057823896408,-1.666364312171936,-2.387019157409668,9.440337181091309
1713723118137263076,-0.001065264455974102,-0.041545312851667404,0.023435818031430244,-0.3292027413845062,-1.581370234489441,9.622296333312988
1713723118147263076,0.022370552644133568,-0.02876213937997818,-0.00532632227987051,0.9050082564353943,0.28131869435310364,10.295066833496094
1713723118157263076,-0.015978965908288956,-0.01065264455974102,0.004261057823896408,0.8750807046890259,0.7793126106262207,10.674548149108887
1713723118166263076,-0.044741105288267136,-0.017044231295585632,-0.015978965908288956,0.06703764945268631,-0.4644751250743866,11.240777015686035
1713723118175263076,0.0,-0.052197955548763275,-0.006391586735844612,-0.9780313968658447,-3.442862033843994,10.157400131225586
1713723118185263076,0.037284255027770996,-0.05432848632335663,0.03195793181657791,0.6967126727104187,-3.251325845718384,9.295488357543945
1713723118194263076,0.13209278881549835,-0.006391586735844612,-0.019174760207533836,2.7988216876983643,-0.8786720037460327,8.615534782409668
1713723118204263076,0.11824434995651245,0.058589544147253036,-0.017044231295585632,2.0195090770721436,0.849941611289978,8.526948928833008
1713723118213263076,0.06924218684434891,0.0788295716047287,-0.03515372797846794,0.15801730751991272,2.8874073028564453,9.817423820495605
1713723118223263076,-0.024501081556081772,0.05326322093605995,-0.02556634694337845,-1.5897499322891235,3.734954595565796,10.127472877502441
1713723118233263076,-0.1342233121395111,-0.009587380103766918,-0.013848437927663326,-2.345120429992676,2.8778305053710938,10.2747163772583
1713723118242263076,-0.15126754343509674,-0.08415588736534119,-0.002130528911948204,-2.366668224334717,-0.2849099934101105,9.818620681762695
1713723118251263076,-0.11398329585790634,-0.1299622654914856,0.029827404767274857,-1.0797849893569946,-3.4823663234710693,8.992621421813965
1713723118260263076,-0.03834952041506767,-0.08628641813993454,0.03941478580236435,2.212242364883423,-2.9448680877685547,9.307458877563477
1713723118270263076,0.017044231295585632,0.007456851191818714,-0.001065264455974102,3.999513864517212,-0.7996633648872375,10.293869972229004
1713723118280263076,-0.001065264455974102,0.08628641813993454,-0.014913702383637428,2.7257986068725586,0.17238251864910126,11.446678161621094
1713723118289263076,0.023435818031430244,0.0649811327457428,-0.04580637067556381,-1.2210428714752197,-1.9405004978179932,11.795034408569336
1713723118298263076,0.03834952041506767,-0.013848437927663326,0.014913702383637428,-3.2573113441467285,-4.531026840209961,10.383652687072754
1713723118308263076,0.09587380290031433,-0.05752427875995636,0.04367584362626076,-0.07781155407428741,-2.470816135406494,9.610325813293457
1713723118318263076,0.15233281254768372,-0.01810949482023716,-0.012783173471689224,2.583343505859375,0.21787235140800476,8.768763542175293
1713723118327263076,0.14168016612529755,0.0511326938867569,-0.017044231295585632,2.255337953567505,1.6579846143722534,7.529764175415039
1713723118336263076,0.05752427875995636,0.08415588736534119,-0.026631610468029976,0.6991068720817566,3.6511576175689697,8.53652572631836
1713723118346263076,-0.049002163112163544,0.07243797928094864,-0.03515372797846794,-0.9612719416618347,4.789600372314453,9.90481185913086
1713723118355263076,-0.1672465205192566,0.030892668291926384,-0.011717909015715122,-2.013523578643799,4.022258758544922,10.127472877502441
1713723118365263076,-0.23329290747642517,-0.03302319720387459,-0.008522115647792816,-2.4791958332061768,1.1540051698684692,10.506954193115234
1713723118375263076,-0.15872439742088318,-0.11504855751991272,0.013848437927663326,-2.8802247047424316,-3.928884983062744,9.558850288391113
1713723118384263076,-0.11078750342130661,-0.12676647305488586,0.06711165606975555,-0.07661445438861847,-5.097255229949951,9.379284858703613
1713723118393263076,0.001065264455974102,-0.055393751710653305,0.01810949482023716,3.8283283710479736,-1.9740192890167236,10.747570991516113
1713723118403263076,-0.008522115647792816,0.047936901450157166,0.004261057823896408,3.995922565460205,-0.652419924736023,12.09550666809082
1713723118412263076,0.04687163606286049,0.07456851005554199,-0.05006742849946022,0.7936778664588928,-2.8371288776397705,11.833341598510742
1713723118422263076,0.08202536404132843,0.04261057823896408,0.014913702383637428,-1.7417817115783691,-5.185840606689453,9.747992515563965
1713723118431263076,0.14594122767448425,0.02130528911948204,0.03302319720387459,-0.026336219161748886,-2.6563668251037598,9.375693321228027
1713723118441263076,0.2034655064344406,0.04687163606286049,-0.01065264455974102,1.2844891548156738,0.7996633648872375,8.777143478393555
1713723118450263076,0.16831177473068237,0.06285060197114944,-0.006391586735844612,0.09696516394615173,2.8598737716674805,7.606378555297852
1713723118459263076,0.047936901450157166,0.03834952041506767,-0.006391586735844612,-1.0474631786346436,5.024232387542725,8.459911346435547
1713723118469263076,-0.09906959533691406,-0.001065264455974102,-0.009587380103766918,-1.358709454536438,5.7975592613220215,9.920374870300293
1713723118478263076,-0.23329290747642517,-0.03515372797846794,0.001065264455974102,-0.849941611289978,4.120420932769775,10.192116737365723
1713723118488263076,-0.2865561246871948,-0.052197955548763275,0.00532632227987051,-0.33279404044151306,0.5315127968788147,10.219649314880371
1713723118497263076,-0.16511598229408264,-0.0884169489145279,-0.009587380103766918,-1.4532804489135742,-5.455188274383545,9.311050415039062
1713723118507263076,-0.08202536404132843,-0.08309062570333481,0.06391586363315582,-0.10534487664699554,-7.041347026824951,9.354146003723145
1713723118516263076,0.047936901450157166,-0.02130528911948204,0.01065264455974102,3.404554843902588,-2.4851813316345215,11.379640579223633
1713723118526263076,0.03834952041506767,0.06817692518234253,-0.006391586735844612,3.645172119140625,0.28371289372444153,12.381613731384277
1713723118535263076,0.029827404767274857,0.10013485699892044,-0.047936901450157166,0.8870517015457153,-0.7098807692527771,12.105083465576172
1713723118545263076,0.06817692518234253,0.047936901450157166,-0.024501081556081772,-2.6132709980010986,-3.7445313930511475,9.370904922485352
1713723118555263076,0.08735168725252151,-0.01065264455974102,0.037284255027770996,-1.890222191810608,-2.7222073078155518,8.390480041503906
1713723118564263076,0.16405072808265686,-0.02556634694337845,-0.008522115647792816,0.7386112213134766,0.6655880808830261,8.423998832702637
1713723118573263076,0.11504855751991272,0.004261057823896408,0.004261057823896408,1.0510544776916504,2.6144680976867676,8.010998725891113
1713723118583263076,0.020240023732185364,0.024501081556081772,-0.012783173471689224,0.7314286231994629,4.442440986633301,9.339780807495117
1713723118592263076,-0.10759171098470688,0.03302319720387459,-0.012783173471689224,0.22266075015068054,4.768052577972412,10.070012092590332
1713723118602263076,-0.21944446861743927,0.02556634694337845,-0.01065264455974102,-0.19871874153614044,3.112462043762207,10.287884712219238
1713723118611263076,-0.21092236042022705,-0.009587380103766918,-0.012783173471689224,-1.6567875146865845,-1.2725181579589844,10.02571964263916
1713723118620263076,-0.11185276508331299,-0.08202536404132843,0.013848437927663326,-3.132812976837158,-6.331466197967529,9.251194953918457
1713723118630263076,-0.034088462591171265,-0.08096009492874146,0.07563377171754837,0.17477671802043915,-4.55616569519043,9.99339771270752
1713723118639263076,0.06178533658385277,-0.02130528911948204,-0.011717909015715122,3.7672762870788574,-0.1735796183347702,10.879252433776855
1713723118649263076,0.001065264455974102,0.06924218684434891,0.00532632227987051,3.1711201667785645,0.8451532125473022,11.164162635803223
1713723118658263076,-0.027696875855326653,0.08948221057653427,-0.047936901450157166,0.4453215003013611,-0.40462008118629456,12.27387523651123
1713723118669263076,0.03834952041506767,0.022370552644133568,-0.026631610468029976,-2.9963433742523193,-4.2281599044799805,9.7791166305542
1713723118677263076,0.05965480953454971,-0.02876213937997818,0.052197955548763275,-1.886630892753601,-3.450044631958008,8.38808536529541
1713723118687263076,0.16511598229408264,-0.041545312851667404,-0.03302319720387459,1.1312602758407593,0.25019407272338867,8.303091049194336
1713723118697263076,0.10865697264671326,-0.002130528911948204,0.01810949482023716,1.3958195447921753,2.4217350482940674,8.159439086914062
1713723118706263076,0.017044231295585632,0.024501081556081772,-0.04580637067556381,1.0749965906143188,4.460397720336914,9.963470458984375
1713723118715263076,-0.11291802674531937,0.03941478580236435,-0.009587380103766918,0.34596213698387146,4.566939830780029,10.336965560913086
1713723118725263076,-0.23009711503982544,0.026631610468029976,-0.027696875855326653,-0.2932896912097931,2.6587610244750977,10.362104415893555
1713723118734263076,-0.1768338978290558,-0.029827404767274857,-0.015978965908288956,-2.34033203125,-2.653972625732422,9.670180320739746
1713723118744263076,-0.10439591109752655,-0.0884169489145279,0.037284255027770996,-2.6874914169311523,-6.593631267547607,8.799888610839844
1713723118753263076,0.001065264455974102,-0.06604639440774918,0.05432848632335663,1.5418658256530762,-3.578134298324585,10.278307914733887
1713723118763263076,0.047936901450157166,0.015978965908288956,-0.003195793367922306,3.79840087890625,0.09696516394615173,11.579556465148926
1713723118772263076,0.00532632227987051,0.08948221057653427,-0.014913702383637428,2.584540605545044,0.6416460275650024,11.12106704711914
1713723118782263076,0.008522115647792816,0.0788295716047287,-0.03515372797846794,-0.9313444495201111,-1.7082629203796387,10.746374130249023
1713723118791263076,0.037284255027770996,0.014913702383637428,0.008522115647792816,-2.7892448902130127,-3.7708675861358643,9.11113452911377
1713723118801263076,0.10439591109752655,-0.019174760207533836,0.044741105288267136,-0.6643909811973572,-1.5658079385757446,8.3521728515625
1713723118810263076,0.1203748807311058,-0.01065264455974102,-0.013848437927663326,0.910993754863739,1.3910311460494995,8.74721622467041
1713723118819263076,0.06391586363315582,0.014913702383637428,0.004261057823896408,0.8798691034317017,3.288435935974121,8.938752174377441
1713723118829263076,-0.06072007119655609,0.024501081556081772,-0.01065264455974102,0.35673603415489197,4.447229385375977,10.291476249694824
1713723118838263076,-0.17363810539245605,0.015978965908288956,-0.024501081556081772,-0.04908113554120064,3.4584243297576904,10.65898609161377
1713723118848263076,-0.22050973773002625,-0.012783173471689224,0.0,-1.0845733880996704,-0.20949263870716095,11.155782699584961
1713723118857263076,-0.11185276508331299,-0.0788295716047287,-0.020240023732185364,-2.63362193107605,-5.808333396911621,9.655815124511719
1713723118867263076,-0.04261057823896408,-0.0788295716047287,0.0788295716047287,-0.06344634294509888,-5.807136058807373,8.890868186950684
1713723118877263076,0.09587380290031433,-0.024501081556081772,-0.01065264455974102,3.774458885192871,-1.4460978507995605,9.786299705505371
1713723118886263076,0.05432848632335663,0.08096009492874146,0.00532632227987051,3.6379895210266113,0.8523358106613159,10.730812072753906
1713723118895263076,-0.001065264455974102,0.1395496428012848,-0.04687163606286049,1.525106430053711,1.789665699005127,11.871648788452148
1713723118905263076,0.001065264455974102,0.09161274135112762,-0.03621898964047432,-2.889801502227783,-0.9852139949798584,10.461463928222656
1713723118914263076,0.006391586735844612,-0.02130528911948204,0.022370552644133568,-4.687846660614014,-3.602076292037964,8.481459617614746
1713723118924263076,0.06285060197114944,-0.08628641813993454,0.024501081556081772,-1.4628572463989258,-1.4772224426269531,8.188169479370117
1713723118934263076,0.07776430249214172,-0.08309062570333481,0.013848437927663326,1.2749123573303223,1.4185644388198853,9.048885345458984
1713723118943263076,0.03195793181657791,-0.034088462591171265,-0.01810949482023716,2.3750481605529785,2.8167781829833984,9.069235801696777
1713723118952263076,-0.07456851005554199,0.027696875855326653,-0.009587380103766918,2.313995838165283,3.535038709640503,10.013748168945312
1713723118961263076,-0.17789916694164276,0.06711165606975555,-0.047936901450157166,1.2904746532440186,2.7904419898986816,11.099518775939941
1713723118971263076,-0.14061491191387177,0.019174760207533836,-0.03941478580236435,-2.8359317779541016,-2.4887726306915283,11.376049041748047
1713723118980263076,-0.05645901337265968,-0.09800432622432709,0.002130528911948204,-5.567716121673584,-8.293514251708984,9.8784761428833
1713723118991263076,0.04261057823896408,-0.13102751970291138,0.08309062570333481,-0.39863458275794983,-5.299565315246582,10.047266960144043
1713723118999263076,0.17044231295585632,-0.08202536404132843,-0.01810949482023716,4.365826606750488,-0.17477671802043915,9.635464668273926
1713723119009263076,0.12250541150569916,0.03195793181657791,-0.008522115647792816,4.3406877517700195,1.768117904663086,8.925583839416504
1713723119018263076,0.03195793181657791,0.11930961906909943,-0.04367584362626076,2.6228480339050293,3.397372245788574,10.566808700561523
1713723119028263076,-0.06817692518234253,0.13848437368869781,-0.03515372797846794,-0.035913024097681046,3.2309751510620117,10.075997352600098
1713723119038263076,-0.12783172726631165,0.07563377171754837,-0.023435818031430244,-3.3854012489318848,0.8056488633155823,10.643423080444336
1713723119047263076,-0.07137271761894226,-0.05752427875995636,-0.009587380103766918,-5.1786580085754395,-3.355473518371582,9.226056098937988
1713723119056263076,-0.052197955548763275,-0.12889699637889862,0.05965480953454971,-2.070984363555908,-3.181894063949585,8.360551834106445
1713723119066263076,0.047936901450157166,-0.13102751970291138,-0.002130528911948204,1.9764134883880615,-0.17717091739177704,8.786720275878906
1713723119075263076,0.006391586735844612,-0.05006742849946022,-0.00532632227987051,3.2956185340881348,1.2844891548156738,9.307458877563477
1713723119085263076,-0.05006742849946022,0.030892668291926384,-0.027696875855326653,3.0585925579071045,2.5019407272338867,11.425129890441895
1713723119094263076,-0.12783172726631165,0.08522115647792816,-0.030892668291926384,1.625662922859192,1.6747440099716187,11.818976402282715
1713723119104263076,-0.05752427875995636,0.027696875855326653,-0.047936901450157166,-3.4811692237854004,-4.2963948249816895,10.94269847869873
1713723119114263076,0.004261057823896408,-0.07669904083013535,0.044741105288267136,-5.524620532989502,-8.416815757751465,9.376891136169434
1713723119123263076,0.13102751970291138,-0.12250541150569916,0.06817692518234253,-0.11133037507534027,-3.7253777980804443,9.587580680847168
1713723119132263076,0.18855179846286774,-0.07563377171754837,-0.002130528911948204,3.756502389907837,1.1408370733261108,9.653421401977539
1713723119142263076,0.13741911947727203,0.019174760207533836,-0.02130528911948204,3.4392707347869873,2.8538882732391357,8.961496353149414
1713723119151263076,0.009587380103766918,0.07563377171754837,-0.019174760207533836,1.698686122894287,4.0749311447143555,9.710882186889648
1713723119160263076,-0.09480853378772736,0.08735168725252151,-0.023435818031430244,0.14724339544773102,3.7888240814208984,9.964667320251465
1713723119171263076,-0.18216021358966827,0.06924218684434891,0.007456851191818714,-1.1288660764694214,2.0685901641845703,9.39484691619873
1713723119179263076,-0.12783172726631165,-0.02556634694337845,-0.04367584362626076,-3.9037458896636963,-2.1990742683410645,8.634688377380371
1713723119189263076,-0.10333064943552017,-0.11291802674531937,0.06924218684434891,-3.338714122772217,-4.134786128997803,8.663418769836426
1713723119198263076,-0.008522115647792816,-0.12889699637889862,0.009587380103766918,1.380257248878479,-1.2725181579589844,9.77791976928711
1713723119208263076,-0.03302319720387459,-0.05006742849946022,0.03515372797846794,3.8115689754486084,0.9014168977737427,11.63342571258545
1713723119218263076,-0.07030745595693588,0.04580637067556381,-0.023435818031430244,3.885789394378662,0.8164227604866028,11.967416763305664
1713723119227263076,-0.030892668291926384,0.07030745595693588,-0.019174760207533836,-0.6548141837120056,-3.75291109085083,11.528080940246582
1713723119242011991,0.07243797928094864,-0.008522115647792816,-0.009587380103766918,-4.7405195236206055,-8.555679321289062,9.947907447814941
1713723119252011991,0.1576591432094574,-0.05965480953454971,0.08628641813993454,-1.4173673391342163,-4.721365451812744,9.72285270690918
1713723119261011991,0.2727077007293701,-0.06604639440774918,-0.019174760207533836,2.3535001277923584,1.1504138708114624,9.093177795410156
1713723119271011991,0.19281286001205444,0.00532632227987051,0.00532632227987051,2.293645143508911,3.535038709640503,7.778761386871338
1713723119280011991,0.058589544147253036,0.03834952041506767,-0.04261057823896408,0.8750807046890259,5.488707542419434,9.655815124511719
1713723119290011991,-0.0788295716047287,0.037284255027770996,0.002130528911948204,-0.35314473509788513,5.574898719787598,9.593565940856934
1713723119299011991,-0.23116238415241241,0.015978965908288956,0.015978965908288956,-0.42856210470199585,3.91092848777771,9.763554573059082
1713723119309011991,-0.27164241671562195,0.002130528911948204,-0.004261057823896408,-0.33279404044151306,0.689530074596405,10.040084838867188
1713723119318011991,-0.1533980816602707,-0.06817692518234253,-0.007456851191818714,-2.8143839836120605,-5.199008941650391,8.299500465393066
1713723119328011991,-0.1022653877735138,-0.10972223430871964,0.06285060197114944,-1.4137760400772095,-6.098031520843506,9.071630477905273
1713723119337011991,0.047936901450157166,-0.07030745595693588,0.023435818031430244,3.3937809467315674,-1.6555904150009155,10.705672264099121
1713723119346011991,0.002130528911948204,0.03302319720387459,0.007456851191818714,4.209006309509277,0.6991068720817566,11.87883186340332
1713723119356011991,-0.027696875855326653,0.11078750342130661,-0.026631610468029976,2.2828712463378906,0.39145198464393616,12.879608154296875
1713723119365011991,0.04261057823896408,0.06711165606975555,-0.05326322093605995,-3.332728624343872,-4.551377296447754,10.503362655639648
1713723119375011991,0.07456851005554199,-0.04048004746437073,0.03621898964047432,-5.190629005432129,-6.586448669433594,8.755595207214355
1713723119385011991,0.18855179846286774,-0.10972223430871964,0.04048004746437073,-0.6979097723960876,-1.9572598934173584,8.955511093139648
1713723119394011991,0.18642127513885498,-0.08948221057653427,0.002130528911948204,2.431311845779419,2.0841524600982666,9.368511199951172
1713723119404011991,0.14913702011108398,-0.017044231295585632,-0.03941478580236435,2.4600422382354736,3.487154722213745,8.160635948181152
1713723119413011991,-0.001065264455974102,0.02130528911948204,0.00532632227987051,1.1851298809051514,4.5154643058776855,8.852560997009277
1713723119422011991,-0.1022653877735138,0.030892668291926384,-0.03195793181657791,0.5973533391952515,4.473565578460693,9.872490882873535
1713723119432011991,-0.21092236042022705,0.03941478580236435,0.03834952041506767,0.4991910457611084,2.852691173553467,9.355342864990234
1713723119442011991,-0.2407497614622116,0.04048004746437073,-0.029827404767274857,0.19033902883529663,0.6619967818260193,9.848548889160156
1713723119451011991,-0.14594122767448425,-0.015978965908288956,-0.001065264455974102,-2.698265314102173,-3.890577793121338,8.913612365722656
1713723119460011991,-0.11185276508331299,-0.0884169489145279,0.037284255027770996,-2.765302896499634,-5.510255336761475,10.266336441040039
1713723119470011991,-0.027696875855326653,-0.08202536404132843,0.058589544147253036,1.8124107122421265,-2.1547815799713135,12.644975662231445
1713723119479011991,-0.012783173471689224,-0.008522115647792816,-0.006391586735844612,3.3267431259155273,-1.4185644388198853,13.172897338867188
1713723119489011991,0.07563377171754837,0.026631610468029976,-0.03621898964047432,0.5638344883918762,-4.99550199508667,11.022904396057129
1713723119498011991,0.12250541150569916,0.030892668291926384,0.024501081556081772,-0.7386112213134766,-5.360617637634277,8.47906494140625
1713723119508011991,0.23009711503982544,0.017044231295585632,-0.012783173471689224,0.667982280254364,-1.3563152551651,7.994239330291748
1713723119517011991,0.20559602975845337,0.034088462591171265,0.002130528911948204,0.894234299659729,2.098517656326294,8.547300338745117
1713723119527011991,0.14487595856189728,0.041545312851667404,-0.029827404767274857,0.3519476354122162,4.608838081359863,8.671798706054688
1713723119536011991,-0.012783173471689224,0.041545312851667404,0.02130528911948204,-0.2298433631658554,6.034585475921631,8.645462036132812
1713723119545011991,-0.17257283627986908,0.022370552644133568,-0.02130528911948204,-0.6344634294509888,5.548562526702881,9.536105155944824
1713723119555011991,-0.27696874737739563,0.0,0.026631610468029976,-0.8164227604866028,3.025073766708374,9.380481719970703
1713723119564011991,-0.26738137006759644,-0.05752427875995636,-0.014913702383637428,-1.9716250896453857,-1.3694833517074585,9.738415718078613
1713723119574011991,-0.17363810539245605,-0.1257012039422989,0.03515372797846794,-2.3810336589813232,-5.748478412628174,9.678560256958008
1713723119583011991,-0.10972223430871964,-0.10759171098470688,0.06604639440774918,1.622071623802185,-4.313154220581055,11.010933876037598
1713723119593011991,-0.024501081556081772,-0.009587380103766918,0.006391586735844612,5.137956619262695,-1.7058687210083008,12.897563934326172
1713723119602011991,0.03621898964047432,0.06924218684434891,-0.03515372797846794,1.9584569931030273,-4.576516628265381,12.362460136413574
1713723119613011991,0.12783172726631165,0.05752427875995636,-0.007456851191818714,-2.3020248413085938,-7.560888767242432,10.743980407714844
1713723119621011991,0.20240023732185364,0.026631610468029976,0.049002163112163544,-1.194706678390503,-4.0761284828186035,9.725247383117676
1713723119631011991,0.29507824778556824,0.006391586735844612,-0.015978965908288956,0.9014168977737427,0.9397241473197937,8.009801864624023
1713723119640011991,0.2269013226032257,0.02556634694337845,0.009587380103766918,0.6177040338516235,3.5889081954956055,6.67024564743042
1713723119650011991,0.09054747968912125,0.029827404767274857,-0.013848437927663326,0.02513911761343479,6.356605529785156,8.143877029418945
1713723119659011991,-0.08948221057653427,0.017044231295585632,0.006391586735844612,-0.28730419278144836,7.424419403076172,9.342174530029297
1713723119669011991,-0.27057716250419617,0.007456851191818714,0.008522115647792816,-0.181959331035614,5.771223068237305,9.86770248413086
1713723119678011991,-0.36858150362968445,-0.001065264455974102,0.009587380103766918,-0.13766659796237946,2.074575662612915,10.304643630981445
1713723119687011991,-0.22903186082839966,-0.08735168725252151,-0.02130528911948204,-3.580528497695923,-5.681440353393555,9.11352825164795
1713723119698011991,-0.1395496428012848,-0.15020228922367096,0.08415588736534119,-2.410961151123047,-10.053253173828125,10.016142845153809
1713723119707011991,0.052197955548763275,-0.09480853378772736,0.07776430249214172,4.477157115936279,-5.341464042663574,11.828553199768066
1713723119716011991,0.08096009492874146,0.04367584362626076,-0.04367584362626076,6.199785232543945,-0.6619967818260193,12.324152946472168
1713723119725011991,0.047936901450157166,0.17470337450504303,-0.002130528911948204,3.9396588802337646,0.3890577554702759,11.549629211425781
1713723119735011991,0.08628641813993454,0.17044231295585632,-0.0649811327457428,-1.8195933103561401,-2.4815900325775146,9.989806175231934
1713723119744011991,0.10546118021011353,0.06817692518234253,0.030892668291926384,-4.89494514465332,-4.009090900421143,8.42160415649414
1713723119754011991,0.16831177473068237,-0.024501081556081772,0.03515372797846794,-2.4672248363494873,-0.42377370595932007,7.923610210418701
1713723119763011991,0.13741911947727203,-0.058589544147253036,0.020240023732185364,-0.4082113802433014,3.134010076522827,8.926780700683594
1713723119773011991,0.047936901450157166,-0.04687163606286049,0.027696875855326653,0.750582218170166,4.7141828536987305,8.87530517578125
1713723119782011991,-0.10759171098470688,-0.017044231295585632,0.007456851191818714,1.4197615385055542,5.009867191314697,9.821015357971191
1713723119792011991,-0.21944446861743927,0.02130528911948204,0.019174760207533836,1.482010841369629,3.428496837615967,10.305841445922852
1713723119801011991,-0.2545982003211975,0.03302319720387459,-0.004261057823896408,-0.07182604819536209,-0.38067805767059326,10.887632369995117
1713723119811011991,-0.10120011866092682,-0.03834952041506767,-0.023435818031430244,-3.5182793140411377,-6.655880451202393,9.354146003723145
1713723119821011991,-0.05752427875995636,-0.08735168725252151,0.10759171098470688,-1.644816517829895,-6.4559645652771,9.11113452911377
1713723119830011991,0.09161274135112762,-0.06711165606975555,0.003195793367922306,3.309983730316162,-0.9373299479484558,10.51174259185791
1713723119839011991,0.017044231295585632,0.04048004746437073,0.05752427875995636,4.165910720825195,1.2102689743041992,11.6430025100708
1713723119849011991,-0.027696875855326653,0.12783172726631165,-0.03621898964047432,2.8993782997131348,1.0414776802062988,12.259510040283203
1713723119858011991,0.030892668291926384,0.10546118021011353,-0.006391586735844612,-2.564189910888672,-3.3291373252868652,9.835380554199219
1713723119868011991,0.055393751710653305,0.001065264455974102,0.030892668291926384,-4.793191909790039,-5.699397087097168,8.382100105285645
1713723119877011991,0.15446333587169647,-0.06711165606975555,0.06604639440774918,-0.8559271097183228,-1.6903064250946045,8.663418769836426
1713723119887011991,0.1533980816602707,-0.055393751710653305,0.024501081556081772,1.7836802005767822,2.2697031497955322,9.26915168762207
1713723119896011991,0.08522115647792816,0.003195793367922306,0.001065264455974102,2.213439464569092,3.7900211811065674,8.775946617126465
1713723119906011991,-0.06072007119655609,0.04687163606286049,0.01810949482023716,1.4185644388198853,4.416104793548584,9.585186004638672
1713723119915011991,-0.15552860498428345,0.07137271761894226,-0.004261057823896408,0.8559271097183228,3.4967315196990967,9.897629737854004
1713723119924011991,-0.23329290747642517,0.08309062570333481,0.03834952041506767,0.04668693244457245,1.4915876388549805,9.481039047241211
1713723119934011991,-0.1395496428012848,0.006391586735844612,-0.052197955548763275,-3.314772129058838,-3.2752678394317627,9.14704704284668
1713723119943011991,-0.11078750342130661,-0.07989483326673508,0.09480853378772736,-3.580528497695923,-5.481524467468262,9.493009567260742
1713723119953011991,-0.02130528911948204,-0.09800432622432709,0.034088462591171265,1.4688427448272705,-1.7334020137786865,11.572373390197754
1713723119963011991,-0.04687163606286049,-0.004261057823896408,0.055393751710653305,4.216188907623291,0.208295539021492,12.895170211791992
1713723119972011991,0.004261057823896408,0.058589544147253036,-0.03941478580236435,1.5610195398330688,-3.1950621604919434,12.30859088897705
1713723119981011991,0.09587380290031433,0.026631610468029976,0.013848437927663326,-2.740163803100586,-7.928398609161377,9.53969669342041
1713723119991011991,0.17470337450504303,-0.004261057823896408,0.06604639440774918,-1.1061211824417114,-4.841075897216797,9.077615737915039
1713723120000011991,0.2886866629123688,-0.008522115647792816,-0.002130528911948204,2.3127987384796143,0.9349357485771179,8.432377815246582
1713723120010011991,0.2087918221950531,0.055393751710653305,0.013848437927663326,1.9177554845809937,3.823539972305298,7.665036678314209
1713723120020011991,0.06178533658385277,0.0788295716047287,-0.024501081556081772,0.47165772318840027,6.324283599853516,9.409212112426758
1713723120028011991,-0.11504855751991272,0.06924218684434891,0.017044231295585632,-0.8104372620582581,6.448781967163086,9.923965454101562
1713723120038011991,-0.27590349316596985,0.034088462591171265,0.015978965908288956,-1.0977414846420288,4.120420932769775,9.99220085144043
1713723120048011991,-0.27483823895454407,-0.01810949482023716,0.008522115647792816,-2.145204782485962,-0.9385270476341248,10.146626472473145
1713723120057011991,-0.16085493564605713,-0.11398329585790634,0.027696875855326653,-3.3494880199432373,-6.647500991821289,8.390480041503906
1713723120066011991,-0.08202536404132843,-0.11398329585790634,0.09906959533691406,0.9085995554924011,-5.014655590057373,9.368511199951172
1713723120077011991,0.019174760207533836,-0.02130528911948204,0.006391586735844612,5.153519153594971,-0.5829880833625793,11.768698692321777
1713723120086011991,-0.03515372797846794,0.10972223430871964,0.01810949482023716,4.401739597320557,-0.07541735470294952,12.565967559814453
1713723120095011991,0.05326322093605995,0.11717908829450607,-0.05645901337265968,-1.4879963397979736,-4.570530891418457,12.176909446716309
1713723120105011991,0.1161138266324997,0.029827404767274857,0.03302319720387459,-5.002684593200684,-8.198943138122559,9.149441719055176
1713723120114011991,0.22583605349063873,-0.04261057823896408,0.07137271761894226,-1.256955862045288,-3.1687259674072266,8.555679321289062
1713723120124011991,0.2695119082927704,-0.049002163112163544,-0.012783173471689224,1.6723498106002808,2.2457611560821533,8.822632789611816
1713723120133011991,0.19387812912464142,0.011717909015715122,0.006391586735844612,1.6089035272598267,4.655525207519531,7.999027729034424
1713723120142011991,0.009587380103766918,0.03302319720387459,-0.009587380103766918,0.4908113479614258,6.5265936851501465,9.66299819946289
1713723120152011991,-0.15020228922367096,0.030892668291926384,0.008522115647792816,-0.02753331884741783,5.928043365478516,10.316615104675293
1713723120161011991,-0.2908172011375427,0.027696875855326653,0.030892668291926384,0.2693476974964142,3.1687259674072266,9.479841232299805
1713723120171011991,-0.28122982382774353,0.020240023732185364,-0.006391586735844612,-0.6584054827690125,-1.1528080701828003,10.092757225036621
1713723120180011991,-0.12676647305488586,-0.05752427875995636,-0.006391586735844612,-3.5039141178131104,-7.114370346069336,8.550890922546387
1713723120190011991,-0.07669904083013535,-0.09054747968912125,0.08735168725252151,-0.993593692779541,-6.032191276550293,9.716867446899414
1713723120199011991,0.06711165606975555,-0.047936901450157166,0.009587380103766918,3.642777919769287,-0.8547300100326538,11.379640579223633
1713723120208011991,0.0,0.05752427875995636,0.02130528911948204,4.000710964202881,0.5315127968788147,11.580753326416016
1713723120218011991,-0.009587380103766918,0.11930961906909943,-0.03941478580236435,1.2437877655029297,-0.9026139974594116,13.265074729919434
1713723120228011991,0.08096009492874146,0.06391586363315582,-0.026631610468029976,-3.531447410583496,-5.232527732849121,9.594762802124023
1713723120237011991,0.09587380290031433,-0.022370552644133568,0.0649811327457428,-3.1016881465911865,-4.183867454528809,7.582436561584473
1713723120247011991,0.2087918221950531,-0.0649811327457428,0.001065264455974102,0.41539397835731506,0.5829880833625793,7.869740962982178
1713723120257011991,0.12463594228029251,-0.026631610468029976,0.030892668291926384,1.4927847385406494,3.4536359310150146,8.615534782409668
1713723120266011991,0.014913702383637428,0.01065264455974102,-0.02876213937997818,1.5969325304031372,5.191826343536377,10.47942066192627
1713723120275011991,-0.13635385036468506,0.03941478580236435,0.019174760207533836,0.9900023937225342,4.4292731285095215,10.145429611206055
1713723120285011991,-0.23861923813819885,0.049002163112163544,-0.014913702383637428,0.5805938839912415,2.0889408588409424,9.84495735168457
1713723120294011991,-0.16405072808265686,0.009587380103766918,-0.006391586735844612,-2.0649988651275635,-3.19865345954895,9.041702270507812
1713723120303011991,-0.08948221057653427,-0.058589544147253036,0.03195793181657791,-3.1028852462768555,-6.471527099609375,8.356961250305176
1713723120313011991,0.02130528911948204,-0.06178533658385277,0.06391586363315582,0.9217676520347595,-3.0178911685943604,9.771934509277344
1713723120322011991,0.04261057823896408,0.00532632227987051,0.014913702383637428,3.4081461429595947,0.8020575642585754,11.457451820373535
1713723120332011991,-0.00532632227987051,0.08735168725252151,-0.007456851191818714,2.7449522018432617,1.7190368175506592,11.341333389282227
1713723120342011991,-0.07456851005554199,0.10972223430871964,0.002130528911948204,-0.4513069987297058,0.008379706181585789,12.853271484375
1713723120351011991,0.019174760207533836,-0.004261057823896408,-0.04367584362626076,-5.155913352966309,-5.69819974899292,10.664971351623535
1713723120360011991,0.03834952041506767,-0.09054747968912125,0.11824434995651245,-3.3482909202575684,-5.961562156677246,8.588001251220703
1713723120370011991,0.2034655064344406,-0.10333064943552017,-0.002130528911948204,2.3989901542663574,-0.9923965930938721,8.2312650680542
1713723120379011991,0.1619201898574829,-0.003195793367922306,0.03621898964047432,3.6164417266845703,1.7609353065490723,8.147468566894531
1713723120389011991,0.09054747968912125,0.06817692518234253,-0.044741105288267136,2.319981336593628,4.01268196105957,10.144232749938965
1713723120398011991,-0.041545312851667404,0.10120011866092682,0.024501081556081772,0.5997475385665894,4.729745388031006,10.075997352600098
1713723120407011991,-0.18429075181484222,0.08948221057653427,-0.014913702383637428,-0.6500257253646851,3.663128614425659,10.168174743652344
1713723120417011991,-0.20133498311042786,0.027696875855326653,-0.004261057823896408,-3.0573954582214355,-0.34356793761253357,10.171765327453613
1713723120427011991,-0.11930961906909943,-0.10013485699892044,0.008522115647792816,-4.77044677734375,-5.671863555908203,8.431180953979492
1713723120437011991,-0.05645901337265968,-0.13315805792808533,0.10120011866092682,-0.44651859998703003,-4.346673011779785,8.851363182067871
1713723120446011991,0.05432848632335663,-0.07137271761894226,0.007456851191818714,4.07014274597168,-0.2825157940387726,10.213664054870605
1713723120455011991,0.0,0.049002163112163544,0.022370552644133568,4.197035312652588,1.1408370733261108,11.100715637207031
1713723120465011991,-0.0649811327457428,0.12889699637889862,-0.008522115647792816,2.1487960815429688,1.2078747749328613,13.266271591186523
1713723120474011991,0.012783173471689224,0.06391586363315582,-0.0511326938867569,-3.693056106567383,-4.481945514678955,11.028889656066895
1713723120483011991,0.037284255027770996,-0.049002163112163544,0.08735168725252151,-4.964376926422119,-7.489062786102295,8.617928504943848
1713723120493011991,0.18216021358966827,-0.09374327212572098,0.05326322093605995,0.545877993106842,-2.7892448902130127,8.686163902282715
1713723120502011991,0.20026971399784088,-0.023435818031430244,0.03834952041506767,3.286041736602783,1.4915876388549805,8.860939979553223
1713723120512011991,0.15446333587169647,0.058589544147253036,-0.03302319720387459,2.5330653190612793,3.6547489166259766,8.686163902282715
1713723120521011991,0.002130528911948204,0.09374327212572098,0.029827404767274857,0.4189852774143219,5.114014625549316,9.400833129882812
1713723120531011991,-0.13741911947727203,0.07243797928094864,-0.026631610468029976,-1.0259153842926025,4.8255133628845215,10.317811965942383
1713723120540011991,-0.2460760921239853,0.029827404767274857,0.049002163112163544,-1.6196774244308472,2.450465440750122,9.96825885772705
1713723120550011991,-0.17470337450504303,-0.07137271761894226,-0.022370552644133568,-3.6296098232269287,-3.3123779296875,9.117119789123535
1713723120559011991,-0.11398329585790634,-0.12783172726631165,0.11185276508331299,-2.3116016387939453,-6.609193801879883,8.682572364807129
1713723120568011991,0.01810949482023716,-0.0884169489145279,0.0511326938867569,2.9664158821105957,-3.1687259674072266,10.020931243896484
1713723120579011991,0.04261057823896408,0.029827404767274857,0.03621898964047432,4.614823818206787,0.22026655077934265,11.801019668579102
1713723120587011991,0.002130528911948204,0.1203748807311058,-0.01065264455974102,2.846705675125122,1.0115501880645752,12.040440559387207
1713723120597011991,0.009587380103766918,0.07776430249214172,-0.02130528911948204,-2.366668224334717,-2.651578426361084,11.39400577545166
1713723120607011991,0.044741105288267136,-0.03302319720387459,0.03515372797846794,-4.575319290161133,-6.457161903381348,9.84615421295166
1713723120616011991,0.12357067316770554,-0.07243797928094864,0.08735168725252151,0.25737667083740234,-3.4991257190704346,9.48462963104248
1713723120625011991,0.20666129887104034,-0.017044231295585632,-0.002130528911948204,3.441664934158325,0.25977087020874023,9.044096946716309
1713723120636011991,0.18322548270225525,0.08096009492874146,0.008522115647792816,2.7257986068725586,2.031480073928833,7.491456985473633
1713723120644011991,0.07350324839353561,0.1203748807311058,-0.007456851191818714,0.568622887134552,4.357447147369385,8.941145896911621
1713723120654011991,-0.047936901450157166,0.09587380290031433,-0.01810949482023716,-1.6950948238372803,5.257667064666748,9.982624053955078
1713723120664011991,-0.18002969026565552,0.026631610468029976,0.020240023732185364,-2.955641984939575,3.930082082748413,9.860519409179688
1713723120673011991,-0.2183792144060135,-0.06604639440774918,0.011717909015715122,-3.4368765354156494,0.19393032789230347,9.923965454101562
1713723120682011991,-0.1533980816602707,-0.1533980816602707,0.06391586363315582,-3.092111349105835,-4.587290287017822,9.263166427612305
1713723120692011991,-0.092678003013134,-0.1438107043504715,0.08415588736534119,1.0678139925003052,-4.265270233154297,9.882067680358887
1713723120701011991,0.001065264455974102,-0.047936901450157166,0.024501081556081772,4.866214752197266,-1.3742717504501343,11.077971458435059
1713723120711011991,-0.006391586735844612,0.06391586363315582,0.009587380103766918,3.751713991165161,-1.4688427448272705,12.45703125
1713723120720011991,0.07989483326673508,0.06604639440774918,-0.044741105288267136,-0.6380547285079956,-4.910507678985596,11.953051567077637
1713723120730011991,0.11291802674531937,0.024501081556081772,0.058589544147253036,-2.185906171798706,-5.874173641204834,9.628281593322754
1713723120739011991,0.2183792144060135,0.003195793367922306,0.03302319720387459,0.6045359373092651,-1.843535304069519,8.676587104797363
1713723120749011991,0.2173139452934265,0.044741105288267136,0.01065264455974102,1.404199242591858,1.358709454536438,8.44554615020752
1713723120758011991,0.17470337450504303,0.06711165606975555,0.0,0.15562310814857483,3.555389404296875,8.111555099487305
1713723120768011991,0.04687163606286049,0.04687163606286049,0.011717909015715122,-1.1659761667251587,5.313930511474609,8.299500465393066
1713723120777011991,-0.11291802674531937,0.003195793367922306,0.004261057823896408,-1.7992424964904785,5.637147903442383,9.797073364257812
1713723120786011991,-0.2364886999130249,-0.04367584362626076,0.022370552644133568,-1.4856021404266357,3.6739025115966797,10.160991668701172
1713723120796011991,-0.2641855776309967,-0.08096009492874146,0.027696875855326653,-1.1109095811843872,-0.243011474609375,10.260351181030273
1713723120805011991,-0.1533980816602707,-0.11930961906909943,0.024501081556081772,-1.4903905391693115,-5.427655220031738,9.375693321228027
1713723120815011991,-0.08202536404132843,-0.10013485699892044,0.08202536404132843,0.507570743560791,-5.962759017944336,10.032901763916016
1713723120824011991,0.015978965908288956,-0.027696875855326653,0.027696875855326653,3.7624878883361816,-2.206256866455078,12.194866180419922
1713723120834011991,0.04261057823896408,0.04367584362626076,0.001065264455974102,2.8203694820404053,-2.2433669567108154,12.698845863342285
1713723120843011991,0.10865697264671326,0.052197955548763275,-0.019174760207533836,-0.5494692921638489,-5.1798553466796875,10.933121681213379
1713723120853011991,0.14913702011108398,0.04367584362626076,0.06285060197114944,-0.6129156351089478,-3.8510732650756836,9.125499725341797
1713723120862011991,0.24288028478622437,0.03834952041506767,-0.007456851191818714,0.750582218170166,-0.02992752008140087,7.762001991271973
1713723120872011991,0.1896170675754547,0.058589544147253036,0.020240023732185364,-0.20470423996448517,2.6156651973724365,7.649474143981934
1713723120881011991,0.09054747968912125,0.03302319720387459,-0.003195793367922306,-1.5083470344543457,5.099649429321289,9.251194953918457
1713723120891011991,-0.06072007119655609,-0.01810949482023716,0.03621898964047432,-1.9261351823806763,5.86699104309082,9.730035781860352
1713723120900011991,-0.21198762953281403,-0.06391586363315582,0.030892668291926384,-1.0761936902999878,4.211400508880615,9.996989250183105
1713723120910011991,-0.2780340313911438,-0.07456851005554199,0.047936901450157166,0.24061726033687592,0.6943184733390808,10.190918922424316
1713723120919011991,-0.15446333587169647,-0.09374327212572098,0.015978965908288956,-0.6787561774253845,-5.148730754852295,9.264363288879395
1713723120929011991,-0.06604639440774918,-0.07456851005554199,0.07243797928094864,-0.2298433631658554,-7.2568254470825195,9.032125473022461
1713723120938011991,0.0511326938867569,-0.020240023732185364,0.04261057823896408,2.7521347999572754,-2.761711597442627,11.367669105529785
1713723120947011991,0.0511326938867569,0.06072007119655609,0.008522115647792816,3.0992939472198486,0.36750996112823486,12.500126838684082
1713723120958011991,0.0511326938867569,0.06924218684434891,-0.015978965908288956,-0.2849099934101105,-1.4867992401123047,11.803414344787598
1713723120966011991,0.07989483326673508,0.002130528911948204,0.020240023732185364,-3.204638957977295,-4.613626480102539,9.461884498596191
1713723120976011991,0.1299622654914856,-0.04580637067556381,0.07030745595693588,-1.2090718746185303,-2.7509377002716064,8.433575630187988
1713723120985011991,0.1949433982372284,-0.03941478580236435,0.026631610468029976,1.478419542312622,0.9457096457481384,8.35456657409668
1713723120995011991,0.1438107043504715,0.009587380103766918,0.027696875855326653,1.7058687210083008,3.161543369293213,8.110358238220215
1713723121004011991,0.011717909015715122,0.04580637067556381,0.027696875855326653,1.0283095836639404,5.147533416748047,9.876081466674805
1713723121015011991,-0.13209278881549835,0.055393751710653305,0.014913702383637428,-0.010773907415568829,4.938040733337402,10.752359390258789
1713723121023011991,-0.2322276532649994,0.03302319720387459,0.037284255027770996,-1.1839326620101929,2.1068973541259766,10.494982719421387
1713723121033011991,-0.15020228922367096,-0.06604639440774918,0.003195793367922306,-3.840299367904663,-3.973177671432495,8.542511940002441
1713723121042011991,-0.10333064943552017,-0.13209278881549835,0.11291802674531937,-2.5929203033447266,-6.191405296325684,8.412027359008789
1713723121052011991,0.03621898964047432,-0.10546118021011353,0.044741105288267136,2.6443958282470703,-2.2158336639404297,10.190918922424316
1713723121061011991,0.009587380103766918,0.001065264455974102,0.04367584362626076,4.301183223724365,0.7625532150268555,12.326547622680664
1713723121071011991,-0.022370552644133568,0.08202536404132843,-0.011717909015715122,2.9281086921691895,0.5147533416748047,13.415908813476562
1713723121080011991,0.03515372797846794,0.04687163606286049,-0.017044231295585632,-2.472013235092163,-4.948814868927002,10.54526138305664
1713723121090011991,0.08309062570333481,-0.029827404767274857,0.06711165606975555,-3.5434184074401855,-7.606378555297852,8.313865661621094
1713723121099011991,0.24288028478622437,-0.04580637067556381,0.06711165606975555,1.2665326595306396,-2.828749179840088,8.158242225646973
1713723121109011991,0.26205503940582275,0.011717909015715122,0.019174760207533836,2.5977087020874023,2.1332337856292725,8.548497200012207
1713723121118011991,0.18748654425144196,0.06817692518234253,-0.003195793367922306,1.3623007535934448,5.2696380615234375,8.613140106201172
1713723121128011991,-0.024501081556081772,0.07137271761894226,0.030892668291926384,-0.5961562395095825,7.1885905265808105,10.314220428466797
1713723121137011991,-0.19813919067382812,0.02876213937997818,-0.002130528911948204,-1.5334861278533936,5.869385242462158,10.629057884216309
1713723121147011991,-0.3195793330669403,-0.020240023732185364,0.06817692518234253,-1.6567875146865845,1.6603788137435913,10.035296440124512
1713723121156011991,-0.18429075181484222,-0.11717908829450607,-0.019174760207533836,-3.2190041542053223,-5.475539207458496,8.42160415649414
1713723121166011991,-0.10759171098470688,-0.14061491191387177,0.13528858125209808,-0.811634361743927,-7.529764175415039,8.20492935180664
1713723121175011991,0.0649811327457428,-0.07350324839353561,0.01065264455974102,4.480748176574707,-2.561795711517334,10.584765434265137
1713723121185011991,0.03834952041506767,0.06285060197114944,0.03621898964047432,5.038597583770752,0.7493851184844971,12.504915237426758
1713723121194011991,-0.00532632227987051,0.14061491191387177,-0.03834952041506767,2.2433669567108154,0.6859387755393982,13.693635940551758
1713723121204011991,0.058589544147253036,0.07456851005554199,-0.027696875855326653,-3.573345899581909,-5.0266265869140625,10.541669845581055
1713723121213011991,0.09587380290031433,-0.020240023732185364,0.06817692518234253,-4.626794815063477,-7.153874397277832,7.8948798179626465
1713723121223011991,0.25779399275779724,-0.07030745595693588,0.041545312851667404,0.05506663769483566,-1.9500772953033447,7.456740856170654
1713723121232011991,0.23968449234962463,-0.03515372797846794,0.015978965908288956,1.9620482921600342,2.828749179840088,8.47786808013916
1713723121241011991,0.16511598229408264,0.009587380103766918,-0.04261057823896408,1.1695674657821655,5.610811710357666,9.074024200439453
1713723121251011991,-0.05006742849946022,0.013848437927663326,0.03302319720387459,-0.11252747476100922,6.815094947814941,10.305841445922852
1713723121260011991,-0.21198762953281403,-0.006391586735844612,-0.034088462591171265,-0.047884032130241394,5.135562419891357,10.639832496643066
1713723121270011991,-0.31744879484176636,0.003195793367922306,0.06711165606975555,0.8439561128616333,1.3682862520217896,9.131484985351562
1713723121279011991,-0.18002969026565552,-0.03515372797846794,-0.06924218684434891,-1.4760253429412842,-5.076904773712158,8.577227592468262
1713723121289011991,-0.07456851005554199,-0.06391586363315582,0.08522115647792816,-2.1104886531829834,-8.052897453308105,8.370128631591797
1713723121298011991,0.05965480953454971,-0.049002163112163544,0.002130528911948204,1.930923581123352,-2.8622679710388184,11.140220642089844
1713723121308011991,0.0511326938867569,0.030892668291926384,0.013848437927663326,3.3183634281158447,1.2928688526153564,13.73194408416748
1713723121317011991,-0.011717909015715122,0.06817692518234253,-0.044741105288267136,1.1899182796478271,0.4944026470184326,13.387178421020508
1713723121327011991,0.06391586363315582,0.008522115647792816,-0.03834952041506767,-3.3051953315734863,-5.7975592613220215,10.362104415893555
1713723121336011991,0.10865697264671326,-0.05752427875995636,0.05965480953454971,-3.2788591384887695,-7.2987236976623535,7.908048152923584
1713723121345011991,0.3014698326587677,-0.07456851005554199,0.012783173471689224,1.1456254720687866,-1.544260025024414,7.4088568687438965
1713723121355011991,0.2695119082927704,-0.01810949482023716,-0.004261057823896408,2.1715409755706787,3.005920171737671,8.135497093200684
1713723121365011991,0.15978966653347015,0.024501081556081772,-0.02556634694337845,1.1180921792984009,6.301538944244385,9.807847023010254
1713723121374011991,-0.05645901337265968,0.03302319720387459,0.01810949482023716,0.026336219161748886,7.450755596160889,10.822988510131836
1713723121383011991,-0.23861923813819885,0.012783173471689224,-0.014913702383637428,-0.15562310814857483,5.0900726318359375,10.077195167541504
1713723121393011991,-0.32170987129211426,0.01065264455974102,0.04367584362626076,0.2968810200691223,1.0019733905792236,8.631096839904785
1713723121402011991,-0.17257283627986908,-0.047936901450157166,-0.05965480953454971,-2.2900538444519043,-5.273229122161865,7.663839340209961
1713723121412011991,-0.09693906456232071,-0.0884169489145279,0.07563377171754837,-2.1583728790283203,-7.127538204193115,8.865728378295898
1713723121421011991,0.03834952041506767,-0.06817692518234253,-0.008522115647792816,2.387019157409668,-1.9560627937316895,11.726799964904785
1713723121431011991,-0.001065264455974102,0.01810949482023716,0.007456851191818714,3.6391866207122803,1.0199298858642578,13.745111465454102
1713723121440011991,-0.014913702383637428,0.05432848632335663,-0.0511326938867569,1.2234370708465576,-1.2282254695892334,14.104242324829102
1713723121450011991,0.08735168725252151,0.006391586735844612,-0.02876213937997818,-3.1735143661499023,-7.522581577301025,9.965864181518555
1713723121459011991,0.15233281254768372,-0.027696875855326653,0.06391586363315582,-2.1045031547546387,-6.619967460632324,7.783549785614014
1713723121469011991,0.3376888334751129,-0.041545312851667404,-0.017044231295585632,1.721431016921997,-0.2190694510936737,7.0988078117370605
1713723121478011991,0.25353294610977173,0.01065264455974102,0.004261057823896408,1.5897499322891235,4.082113742828369,8.021772384643555
1713723121487011991,0.11291802674531937,0.034088462591171265,-0.049002163112163544,0.333991140127182,7.281964302062988,10.504559516906738
1713723121497011991,-0.10013485699892044,0.020240023732185364,0.01810949482023716,-0.8032546639442444,7.3023152351379395,10.099939346313477
1713723121506011991,-0.2780340313911438,-0.015978965908288956,-0.017044231295585632,-0.43095630407333374,4.359841346740723,9.399635314941406
1713723121517011991,-0.3153182864189148,-0.017044231295585632,0.03834952041506767,0.30286651849746704,0.0011971008498221636,8.944737434387207
1713723121525011991,-0.16085493564605713,-0.05645901337265968,-0.04687163606286049,-1.744175910949707,-5.57370138168335,7.762001991271973
1713723121535011991,-0.092678003013134,-0.07563377171754837,0.07243797928094864,-1.1276689767837524,-6.065710067749023,9.023746490478516
1713723121544011991,0.020240023732185364,-0.04367584362626076,-0.01065264455974102,2.4887726306915283,-1.2306196689605713,12.470199584960938
1713723121554011991,-0.027696875855326653,0.027696875855326653,0.009587380103766918,2.6144680976867676,0.3998316824436188,14.471752166748047
1713723121563011991,0.03941478580236435,0.007456851191818714,-0.05752427875995636,-1.0307037830352783,-4.492719650268555,13.229161262512207
1713723121573011991,0.10013485699892044,-0.02876213937997818,0.0511326938867569,-2.2601263523101807,-8.573636054992676,8.541314125061035
1713723121582011991,0.24927188456058502,-0.019174760207533836,0.03515372797846794,1.403002142906189,-4.474762916564941,7.466317653656006
1713723121592011991,0.33236250281333923,0.04367584362626076,-0.013848437927663326,2.827552080154419,1.1097124814987183,8.02536392211914
1713723121601011991,0.27164241671562195,0.09693906456232071,-0.020240023732185364,0.9469067454338074,5.142745018005371,8.090007781982422
1713723121611011991,0.05965480953454971,0.08735168725252151,-0.013848437927663326,-1.3299790620803833,8.267178535461426,10.194510459899902
1713723121620011991,-0.1619201898574829,0.02556634694337845,0.0,-2.5905261039733887,7.785943984985352,10.897209167480469
1713723121630011991,-0.3344930410385132,-0.047936901450157166,0.029827404767274857,-1.9548656940460205,3.796006679534912,9.585186004638672
1713723121639011991,-0.2684466242790222,-0.12357067316770554,0.007456851191818714,-2.7461493015289307,-3.380612850189209,8.20492935180664
1713723121649011991,-0.15020228922367096,-0.17896442115306854,0.06924218684434891,-1.9369091987609863,-8.214506149291992,7.672219276428223
1713723121659011991,0.004261057823896408,-0.1257012039422989,0.06711165606975555,3.6104559898376465,-4.584896087646484,10.47702693939209
1713723121668011991,0.05965480953454971,0.006391586735844612,-0.007456851191818714,5.78798246383667,0.1711854189634323,12.85087776184082
1713723121677011991,0.001065264455974102,0.12250541150569916,-0.017044231295585632,3.7684733867645264,0.9756371974945068,12.971784591674805
1713723121687011991,0.041545312851667404,0.08628641813993454,-0.044741105288267136,-2.276885747909546,-3.914519786834717,12.161347389221191
1713723121696011991,0.1065264418721199,-0.011717909015715122,0.022370552644133568,-4.95120906829834,-8.38569164276123,8.69214916229248
1713723121705011991,0.2407497614622116,-0.05006742849946022,0.08309062570333481,-0.50876784324646,-3.9444472789764404,7.954734802246094
1713723121716011991,0.3195793330669403,-0.037284255027770996,-0.030892668291926384,1.7753005027770996,2.030282974243164,8.339004516601562
1713723121724011991,0.23329290747642517,0.011717909015715122,0.014913702383637428,1.036689281463623,5.451597213745117,8.305485725402832
1713723121724083930,0.02130528911948204,0.01810949482023716,-0.01810949482023716,-0.208295539021492,8.002618789672852,10.493785858154297
1713723121733083930,-0.1810949593782425,-0.002130528911948204,0.015978965908288956,-0.5722141861915588,7.127538204193115,10.76073932647705
1713723121743083930,-0.33236250281333923,-0.020240023732185364,0.037284255027770996,0.39624038338661194,3.2381577491760254,9.375693321228027
1713723121752083930,-0.3067961633205414,-0.001065264455974102,0.017044231295585632,0.4010287821292877,-1.8854337930679321,9.081207275390625
1713723121762083930,-0.1203748807311058,-0.04367584362626076,0.001065264455974102,-2.278082847595215,-7.772775650024414,8.123526573181152
1713723121771083930,-0.0511326938867569,-0.05645901337265968,0.08522115647792816,-0.5159504413604736,-5.992686748504639,9.865307807922363
1713723121781083930,0.07350324839353561,-0.02130528911948204,0.0,2.913743495941162,-0.07182604819536209,12.278663635253906
1713723121790083930,-0.02556634694337845,0.03834952041506767,0.01810949482023716,2.5498247146606445,1.0630255937576294,13.041216850280762
1713723121800083930,0.014913702383637428,0.01810949482023716,-0.04261057823896408,-0.712274968624115,-3.288435935974121,12.674903869628906
1713723121809083930,0.09161274135112762,-0.02556634694337845,0.02876213937997818,-2.8131868839263916,-7.972691535949707,8.348581314086914
1713723121819083930,0.22370553016662598,-0.03941478580236435,0.05326322093605995,0.40940847992897034,-4.3861775398254395,7.210138320922852
1713723121829083930,0.3099919557571411,0.004261057823896408,-0.020240023732185364,2.5270798206329346,1.5179238319396973,8.250418663024902
1713723121837083930,0.222640261054039,0.06391586363315582,-0.006391586735844612,1.3060369491577148,5.448005676269531,8.803479194641113
1713723121847083930,0.011717909015715122,0.06924218684434891,-0.00532632227987051,-0.4405331015586853,8.056488990783691,10.87446403503418
1713723121857083930,-0.19174760580062866,0.03302319720387459,0.009587380103766918,-1.3838485479354858,6.782773494720459,10.650606155395508
1713723121866083930,-0.3302319645881653,-0.01065264455974102,0.04687163606286049,-0.9612719416618347,2.7126305103302,8.923189163208008
1713723121875083930,-0.23968449234962463,-0.06711165606975555,0.0,-2.206256866455078,-3.728969097137451,8.009801864624023
1713723121885083930,-0.13209278881549835,-0.11504855751991272,0.07776430249214172,-2.2661118507385254,-7.501033782958984,8.027758598327637
1713723121894083930,-0.003195793367922306,-0.08948221057653427,0.05432848632335663,2.163161277770996,-3.551798105239868,10.777499198913574
1713723121904083930,0.023435818031430244,0.012783173471689224,0.02130528911948204,4.346673011779785,0.6057330369949341,13.200430870056152
1713723121914083930,-0.022370552644133568,0.08522115647792816,-0.014913702383637428,2.361879825592041,0.17477671802043915,13.593079566955566
1713723121923083930,0.05432848632335663,0.02876213937997818,-0.02556634694337845,-2.936488389968872,-5.7975592613220215,11.343727111816406
1713723121932083930,0.10333064943552017,-0.041545312851667404,0.07137271761894226,-3.138798475265503,-7.9164276123046875,8.397662162780762
1713723121942083930,0.2908172011375427,-0.05006742849946022,0.03302319720387459,1.701080322265625,-2.4456770420074463,7.359776020050049
1713723121951083930,0.2918824553489685,0.004261057823896408,-0.009587380103766918,2.3714568614959717,2.4217350482940674,7.9415669441223145
1713723121961083930,0.20026971399784088,0.03834952041506767,-0.020240023732185364,0.9636661410331726,6.123170852661133,9.220070838928223
1713723121971083930,-0.01810949482023716,0.03302319720387459,0.01065264455974102,-0.23582886159420013,8.085219383239746,10.407594680786133
1713723121980083930,-0.22370553016662598,0.006391586735844612,-0.008522115647792816,-0.42616790533065796,6.335057735443115,10.278307914733887
1713723121989083930,-0.35047200322151184,-0.001065264455974102,0.05006742849946022,0.7026981711387634,2.250549554824829,8.882488250732422
1713723121999083930,-0.2737729549407959,0.003195793367922306,-0.022370552644133568,-0.208295539021492,-3.377021551132202,8.919598579406738
1713723122008083930,-0.10333064943552017,-0.04687163606286049,0.009587380103766918,-2.89339280128479,-8.62630844116211,8.592789649963379
1713723122018083930,-0.008522115647792816,-0.05645901337265968,0.06285060197114944,-0.11971008032560349,-5.007472991943359,10.793061256408691
1713723122027083930,0.07776430249214172,-0.01065264455974102,-0.027696875855326653,3.2632968425750732,0.8164227604866028,13.136984825134277
1713723122036083930,-0.012783173471689224,0.055393751710653305,-0.003195793367922306,2.5282769203186035,1.182735562324524,12.375628471374512
1713723122046083930,-0.008522115647792816,0.03834952041506767,-0.05645901337265968,-0.7757213115692139,-2.8407201766967773,11.6430025100708
1713723122055083930,0.07776430249214172,-0.012783173471689224,0.012783173471689224,-3.0202853679656982,-7.170633792877197,8.396465301513672
1713723122065083930,0.19281286001205444,-0.037284255027770996,0.037284255027770996,-0.2322375625371933,-3.9671921730041504,7.544129371643066
1713723122074083930,0.2790992856025696,-0.015978965908288956,-0.026631610468029976,2.102108955383301,1.5693992376327515,8.343792915344238
1713723122084083930,0.18216021358966827,0.03834952041506767,-0.006391586735844612,1.581370234489441,5.159504413604736,8.974664688110352
1713723122094083930,-0.007456851191818714,0.05752427875995636,-0.02130528911948204,0.22625206410884857,7.293935298919678,11.33654499053955
1713723122103083930,-0.18748654425144196,0.03621898964047432,-0.006391586735844612,-0.6835445761680603,5.790376663208008,10.548852920532227
1713723122112083930,-0.3110572099685669,0.007456851191818714,0.024501081556081772,-0.5039794445037842,1.9931728839874268,8.868123054504395
1713723122122083930,-0.19174760580062866,-0.055393751710653305,-0.04048004746437073,-2.562992811203003,-4.595670223236084,7.921216011047363
1713723122131083930,-0.10546118021011353,-0.10013485699892044,0.06604639440774918,-2.3295581340789795,-7.386112213134766,8.339004516601562
1713723122141083930,0.0511326938867569,-0.07989483326673508,0.009587380103766918,2.4672248363494873,-2.7461493015289307,10.199298858642578
1713723122150083930,0.037284255027770996,0.022370552644133568,0.006391586735844612,4.071340084075928,1.2892775535583496,12.807782173156738
1713723122160083930,-0.024501081556081772,0.10013485699892044,-0.049002163112163544,2.6635494232177734,1.9608511924743652,13.12381649017334
1713723122169083930,-0.03302319720387459,0.058589544147253036,-0.027696875855326653,-2.2254104614257812,-2.8419172763824463,11.35929012298584
1713723122179083930,0.04687163606286049,-0.047936901450157166,-0.003195793367922306,-4.660313606262207,-7.989450931549072,8.286332130432129
1713723122188083930,0.1619201898574829,-0.07563377171754837,0.07669904083013535,-0.27653029561042786,-4.532223701477051,7.9846625328063965
1713723122197083930,0.2737729549407959,-0.05006742849946022,-0.044741105288267136,2.6587610244750977,1.2042834758758545,8.735244750976562
1713723122207083930,0.19813919067382812,0.014913702383637428,-0.006391586735844612,2.1140799522399902,4.222174644470215,8.84178638458252
1713723122216083930,0.024501081556081772,0.0511326938867569,-0.02876213937997818,0.8248024582862854,6.5948286056518555,11.12346076965332
1713723122226083930,-0.14594122767448425,0.047936901450157166,-0.019174760207533836,-0.07781155407428741,5.744886875152588,10.47702693939209
1713723122235083930,-0.28016453981399536,0.034088462591171265,0.020240023732185364,0.0071826050989329815,2.608482599258423,9.193734169006348
1713723122245083930,-0.22370553016662598,0.008522115647792816,-0.055393751710653305,-1.8387469053268433,-2.515108823776245,8.814253807067871
1713723122254083930,-0.10333064943552017,-0.0788295716047287,0.019174760207533836,-3.8498761653900146,-7.222109317779541,8.395268440246582
1713723122264083930,-0.015978965908288956,-0.10546118021011353,0.05006742849946022,-0.038307227194309235,-3.9420530796051025,10.358513832092285
1713723122274083930,0.049002163112163544,-0.03621898964047432,0.001065264455974102,3.8103718757629395,0.8786720037460327,12.376825332641602
1713723122283083930,-0.023435818031430244,0.05965480953454971,0.0,3.5721487998962402,1.1061211824417114,12.120645523071289
1713723122292083930,-0.026631610468029976,0.08628641813993454,-0.012783173471689224,0.4129997789859772,-2.031480073928833,11.42991828918457
1713723122302083930,0.07563377171754837,0.029827404767274857,-0.01065264455974102,-3.4608185291290283,-6.8378400802612305,8.665812492370605
1713723122312083930,0.14913702011108398,-0.008522115647792816,0.10013485699892044,-2.098517656326294,-4.177881717681885,8.306682586669922
1713723122321083930,0.258859246969223,-0.02130528911948204,-0.011717909015715122,0.7936778664588928,1.7369933128356934,8.518569946289062
1713723122330083930,0.14594122767448425,0.020240023732185364,0.07350324839353561,0.8020575642585754,4.857835292816162,9.133879661560059
1713723122339083930,-0.015978965908288956,0.03941478580236435,0.011717909015715122,0.17477671802043915,6.642712593078613,11.05402946472168
1713723122349083930,-0.17257283627986908,0.03621898964047432,0.058589544147253036,-0.6021417379379272,5.04218864440918,9.896432876586914
1713723122359083930,-0.2652508318424225,0.009587380103766918,0.05432848632335663,-1.359906554222107,1.4700398445129395,9.311050415039062
1713723122369083930,-0.16298545897006989,-0.06817692518234253,0.034088462591171265,-3.445256233215332,-3.9839515686035156,8.157045364379883
1713723122377083930,-0.11717908829450607,-0.12250541150569916,0.13528858125209808,-2.3259668350219727,-5.456385612487793,8.681375503540039
1713723122387083930,0.001065264455974102,-0.09906959533691406,0.07669904083013535,2.3942017555236816,-1.6484078168869019,10.970232009887695
1713723122396083930,-0.020240023732185364,0.007456851191818714,0.10013485699892044,3.9683892726898193,0.46567222476005554,12.259510040283203
1713723122406083930,-0.03621898964047432,0.07137271761894226,0.03621898964047432,2.187103271484375,-0.7242460250854492,13.377601623535156
1713723122415083930,0.05432848632335663,0.03515372797846794,0.058589544147253036,-2.2254104614257812,-5.851428985595703,10.69489860534668
1713723122425083930,0.09161274135112762,-0.009587380103766918,0.12144014239311218,-2.34033203125,-6.344634532928467,8.305485725402832
1713723122435083930,0.24181503057479858,-0.020240023732185364,0.08948221057653427,1.0749965906143188,-1.2904746532440186,7.854178428649902
