t,gx,gy,gz,ax,ay,az
1713723961476770912,-0.002130528911948204,-0.002130528911948204,-0.01810949482023716,-0.13527239859104156,-0.9792284965515137,9.873687744140625
1713723961485770912,-0.002130528911948204,-0.002130528911948204,-0.019174760207533836,-0.11851298063993454,-0.9672574996948242,9.87967300415039
1713723961495770912,-0.002130528911948204,-0.001065264455974102,-0.019174760207533836,-0.11611878126859665,-0.9672574996948242,9.883264541625977
1713723961505770912,-0.002130528911948204,-0.001065264455974102,-0.01810949482023716,-0.12090718746185303,-0.9792284965515137,9.873687744140625
1713723961514770912,-0.002130528911948204,-0.002130528911948204,-0.019174760207533836,-0.12449848651885986,-0.9804255962371826,9.871293067932129
1713723961524770912,-0.002130528911948204,-0.001065264455974102,-0.019174760207533836,-0.11971008032560349,-0.9672574996948242,9.874884605407715
1713723961533770912,-0.002130528911948204,-0.002130528911948204,-0.019174760207533836,-0.1149216815829277,-0.9684545993804932,9.877279281616211
1713723961543770912,-0.003195793367922306,-0.002130528911948204,-0.019174760207533836,-0.12330138683319092,-0.9768342971801758,9.876081466674805
1713723961553770912,-0.003195793367922306,-0.002130528911948204,-0.019174760207533836,-0.1256955862045288,-0.973242998123169,9.873687744140625
1713723961562770912,-0.002130528911948204,-0.001065264455974102,-0.019174760207533836,-0.11971008032560349,-0.9636661410331726,9.876081466674805
1713723961572770912,-0.003195793367922306,-0.002130528911948204,-0.019174760207533836,-0.12330138683319092,-0.9696516990661621,9.88086986541748
1713723961581770912,-0.002130528911948204,-0.001065264455974102,-0.019174760207533836,-0.1280897855758667,-0.9780313968658447,9.87967300415039
1713723961591770912,-0.002130528911948204,-0.002130528911948204,-0.01810949482023716,-0.12090718746185303,-0.9696516990661621,9.876081466674805
1713723961600770912,-0.002130528911948204,-0.001065264455974102,-0.019174760207533836,-0.1149216815829277,-0.9636661410331726,9.874884605407715
1713723961610770912,-0.003195793367922306,-0.001065264455974102,-0.01810949482023716,-0.12210428714752197,-0.9696516990661621,9.86889934539795
1713723961619770912,-0.002130528911948204,-0.001065264455974102,-0.019174760207533836,-0.13407529890537262,-0.9744400978088379,9.876081466674805
1713723961629770912,-0.002130528911948204,-0.002130528911948204,-0.01810949482023716,-0.1280897855758667,-0.9696516990661621,9.8784761428833
1713723961639770912,-0.002130528911948204,-0.001065264455974102,-0.01810949482023716,-0.11611878126859665,-0.9636661410331726,9.877279281616211
1713723961648770912,-0.002130528911948204,-0.002130528911948204,-0.01810949482023716,-0.12090718746185303,-0.970848798751831,9.877279281616211
1713723961658770912,-0.002130528911948204,-0.001065264455974102,-0.019174760207533836,-0.12928688526153564,-0.9792284965515137,9.874884605407715
1713723961668770912,-0.002130528911948204,-0.002130528911948204,-0.019174760207533836,-0.12210428714752197,-0.9780313968658447,9.882067680358887
1713723961677770912,-0.002130528911948204,-0.001065264455974102,-0.019174760207533836,-0.11372458189725876,-0.9768342971801758,9.882067680358887
1713723961687770912,-0.002130528911948204,-0.001065264455974102,-0.019174760207533836,-0.11971008032560349,-0.9816226959228516,9.877279281616211
1713723961696770912,-0.002130528911948204,-0.001065264455974102,-0.019174760207533836,-0.12689268589019775,-0.9744400978088379,9.8784761428833
1713723961706770912,-0.002130528911948204,-0.001065264455974102,-0.01810949482023716,-0.1280897855758667,-0.9600748419761658,9.88086986541748
1713723961715770912,-0.003195793367922306,-0.002130528911948204,-0.019174760207533836,-0.12689268589019775,-0.9612719416618347,9.877279281616211
1713723961725770912,-0.002130528911948204,-0.002130528911948204,-0.019174760207533836,-0.13287819921970367,-0.973242998123169,9.876081466674805
1713723961734770912,-0.003195793367922306,-0.001065264455974102,-0.01810949482023716,-0.1256955862045288,-0.970848798751831,9.883264541625977
1713723961744770912,-0.003195793367922306,-0.001065264455974102,-0.01810949482023716,-0.1149216815829277,-0.9636661410331726,9.885658264160156
1713723961754770912,-0.002130528911948204,-0.001065264455974102,-0.019174760207533836,-0.12689268589019775,-0.9720458984375,9.882067680358887
1713723961763770912,-0.002130528911948204,-0.001065264455974102,-0.019174760207533836,-0.13527239859104156,-0.9756371974945068,9.882067680358887
1713723961773770912,-0.002130528911948204,-0.002130528911948204,-0.01810949482023716,-0.12689268589019775,-0.9612719416618347,9.883264541625977
1713723961783770912,-0.003195793367922306,-0.002130528911948204,-0.019174760207533836,-0.1173158809542656,-0.9624690413475037,9.883264541625977
1713723961792770912,-0.002130528911948204,-0.002130528911948204,-0.019174760207533836,-0.12330138683319092,-0.9792284965515137,9.8784761428833
1713723961801770912,-0.002130528911948204,-0.002130528911948204,-0.019174760207533836,-0.13527239859104156,-0.9852139949798584,9.876081466674805
1713723961811770912,-0.002130528911948204,-0.002130528911948204,-0.01810949482023716,-0.12449848651885986,-0.9720458984375,9.88086986541748
1713723961821770912,-0.003195793367922306,-0.002130528911948204,-0.01810949482023716,-0.11372458189725876,-0.9612719416618347,9.884461402893066
1713723961830770912,-0.002130528911948204,-0.002130528911948204,-0.019174760207533836,-0.12090718746185303,-0.9744400978088379,9.877279281616211
1713723961840770912,-0.003195793367922306,-0.001065264455974102,-0.019174760207533836,-0.1256955862045288,-0.9804255962371826,9.866504669189453
1713723961849770912,-0.003195793367922306,-0.002130528911948204,-0.01810949482023716,-0.11611878126859665,-0.973242998123169,9.872490882873535
1713723961860770912,-0.002130528911948204,-0.001065264455974102,-0.01810949482023716,-0.11252747476100922,-0.970848798751831,9.87967300415039
1713723961868770912,-0.003195793367922306,-0.001065264455974102,-0.019174760207533836,-0.1280897855758667,-0.9780313968658447,9.877279281616211
1713723961878770912,-0.002130528911948204,-0.001065264455974102,-0.019174760207533836,-0.13527239859104156,-0.9792284965515137,9.873687744140625
1713723961888770912,-0.002130528911948204,-0.001065264455974102,-0.01810949482023716,-0.11971008032560349,-0.9684545993804932,9.873687744140625
1713723961897770912,-0.002130528911948204,-0.001065264455974102,-0.01810949482023716,-0.12090718746185303,-0.9684545993804932,9.876081466674805
1713723961907770912,-0.002130528911948204,-0.002130528911948204,-0.01810949482023716,-0.13766659796237946,-0.973242998123169,9.876081466674805
1713723961917770912,-0.002130528911948204,-0.002130528911948204,-0.01810949482023716,-0.13168108463287354,-0.973242998123169,9.872490882873535
1713723961926770912,-0.002130528911948204,-0.002130528911948204,-0.019174760207533836,-0.11133037507534027,-0.9672574996948242,9.871293067932129
1713723961936770912,-0.002130528911948204,-0.001065264455974102,-0.019174760207533836,-0.1149216815829277,-0.9648632407188416,9.865307807922363
1713723961945770912,-0.003195793367922306,-0.001065264455974102,-0.01810949482023716,-0.12928688526153564,-0.9696516990661621,9.866504669189453
1713723961955770912,-0.002130528911948204,-0.001065264455974102,-0.019174760207533836,-0.12330138683319092,-0.9696516990661621,9.877279281616211
1713723961964770912,-0.002130528911948204,-0.001065264455974102,-0.019174760207533836,-0.1173158809542656,-0.9648632407188416,9.874884605407715
1713723961974770912,-0.002130528911948204,-0.001065264455974102,-0.019174760207533836,-0.12210428714752197,-0.9756371974945068,9.870096206665039
1713723961983770912,-0.002130528911948204,-0.001065264455974102,-0.019174760207533836,-0.13168108463287354,-0.9816226959228516,9.871293067932129
1713723961993770912,-0.002130528911948204,-0.002130528911948204,-0.01810949482023716,-0.13168108463287354,-0.9720458984375,9.872490882873535
1713723962003770912,-0.002130528911948204,-0.001065264455974102,-0.01810949482023716,-0.11851298063993454,-0.9696516990661621,9.876081466674805
1713723962013770912,-0.002130528911948204,-0.001065264455974102,-0.019174760207533836,-0.11971008032560349,-0.9792284965515137,9.87967300415039
1713723962023770912,-0.002130528911948204,-0.001065264455974102,-0.019174760207533836,-0.13168108463287354,-0.9804255962371826,9.87967300415039
1713723962032770912,-0.002130528911948204,-0.001065264455974102,-0.01810949482023716,-0.1256955862045288,-0.973242998123169,9.8784761428833
1713723962041770912,-0.003195793367922306,-0.001065264455974102,-0.019174760207533836,-0.11611878126859665,-0.9660603404045105,9.877279281616211
1713723962051770912,-0.002130528911948204,-0.001065264455974102,-0.019174760207533836,-0.12689268589019775,-0.9696516990661621,9.870096206665039
1713723962060770912,-0.002130528911948204,-0.002130528911948204,-0.019174760207533836,-0.12449848651885986,-0.9756371974945068,9.871293067932129
1713723962070770912,-0.003195793367922306,-0.002130528911948204,-0.019174760207533836,-0.11611878126859665,-0.9684545993804932,9.873687744140625
1713723962079770912,-0.003195793367922306,-0.001065264455974102,-0.01810949482023716,-0.11851298063993454,-0.970848798751831,9.874884605407715
1713723962090770912,-0.003195793367922306,-0.002130528911948204,-0.019174760207533836,-0.12449848651885986,-0.9768342971801758,9.876081466674805
1713723962099770912,-0.003195793367922306,-0.001065264455974102,-0.01810949482023716,-0.12928688526153564,-0.9768342971801758,9.874884605407715
1713723962108770912,-0.002130528911948204,-0.001065264455974102,-0.019174760207533836,-0.11851298063993454,-0.970848798751831,9.88086986541748
1713723962118770912,-0.002130528911948204,-0.001065264455974102,-0.01810949482023716,-0.11611878126859665,-0.9696516990661621,9.874884605407715
1713723962127770912,-0.003195793367922306,-0.001065264455974102,-0.01810949482023716,-0.12689268589019775,-0.9744400978088379,9.870096206665039
1713723962137770912,-0.002130528911948204,-0.001065264455974102,-0.01810949482023716,-0.13168108463287354,-0.9672574996948242,9.874884605407715
1713723962146770912,-0.003195793367922306,-0.002130528911948204,-0.01810949482023716,-0.12090718746185303,-0.9612719416618347,9.87967300415039
1713723962156770912,-0.002130528911948204,-0.001065264455974102,-0.019174760207533836,-0.12330138683319092,-0.9696516990661621,9.877279281616211
1713723962166770912,-0.003195793367922306,-0.001065264455974102,-0.019174760207533836,-0.13287819921970367,-0.9768342971801758,9.866504669189453
1713723962175770912,-0.002130528911948204,-0.001065264455974102,-0.01810949482023716,-0.12689268589019775,-0.9756371974945068,9.86889934539795
1713723962185770912,-0.003195793367922306,-0.002130528911948204,-0.01810949482023716,-0.12090718746185303,-0.9672574996948242,9.87967300415039
1713723962194770912,-0.003195793367922306,-0.001065264455974102,-0.01810949482023716,-0.1280897855758667,-0.970848798751831,9.87967300415039
1713723962204770912,-0.002130528911948204,-0.002130528911948204,-0.019174760207533836,-0.12928688526153564,-0.9792284965515137,9.874884605407715
1713723962214770912,-0.002130528911948204,-0.002130528911948204,-0.019174760207533836,-0.1173158809542656,-0.970848798751831,9.870096206665039
1713723962223770912,-0.003195793367922306,-0.002130528911948204,-0.01810949482023716,-0.11252747476100922,-0.9636661410331726,9.872490882873535
1713723962233770912,-0.002130528911948204,-0.002130528911948204,-0.019174760207533836,-0.12330138683319092,-0.9744400978088379,9.874884605407715
1713723962242770912,-0.002130528911948204,-0.001065264455974102,-0.019174760207533836,-0.12928688526153564,-0.9792284965515137,9.873687744140625
1713723962252770912,-0.002130528911948204,-0.002130528911948204,-0.019174760207533836,-0.12330138683319092,-0.9720458984375,9.87967300415039
1713723962262770912,-0.002130528911948204,-0.002130528911948204,-0.01810949482023716,-0.12090718746185303,-0.9672574996948242,9.87967300415039
1713723962271770912,-0.003195793367922306,-0.002130528911948204,-0.019174760207533836,-0.1280897855758667,-0.970848798751831,9.876081466674805
1713723962281770912,-0.003195793367922306,-0.002130528911948204,-0.01810949482023716,-0.13287819921970367,-0.9720458984375,9.874884605407715
1713723962290770912,-0.002130528911948204,-0.001065264455974102,-0.01810949482023716,-0.12090718746185303,-0.9636661410331726,9.873687744140625
1713723962300770912,-0.003195793367922306,-0.001065264455974102,-0.019174760207533836,-0.1173158809542656,-0.9600748419761658,9.8784761428833
1713723962309770912,-0.003195793367922306,-0.002130528911948204,-0.019174760207533836,-0.12928688526153564,-0.9696516990661621,9.876081466674805
1713723962319770912,-0.003195793367922306,-0.002130528911948204,-0.01810949482023716,-0.13287819921970367,-0.9768342971801758,9.877279281616211
1713723962329770912,-0.003195793367922306,-0.001065264455974102,-0.01810949482023716,-0.11971008032560349,-0.973242998123169,9.876081466674805
1713723962339770912,-0.003195793367922306,-0.002130528911948204,-0.019174760207533836,-0.13527239859104156,-0.9528922438621521,9.93474006652832
1713723962348770912,0.004261057823896408,-0.004261057823896408,-0.020240023732185364,-0.1173158809542656,-0.7649474143981934,10.3333740234375
1713723962357770912,0.020240023732185364,-0.006391586735844612,-0.019174760207533836,-0.0011971008498221636,-0.35913026332855225,10.512939453125
1713723962367770912,0.05645901337265968,0.009587380103766918,-0.02130528911948204,0.14604629576206207,0.11851298063993454,9.99220085144043
1713723962377770912,0.07563377171754837,0.01810949482023716,-0.026631610468029976,0.11971008032560349,0.8738836050033569,10.283096313476562
1713723962386770912,0.10759171098470688,0.012783173471689224,-0.030892668291926384,-0.1173158809542656,1.236605167388916,10.008959770202637
1713723962396770912,0.1065264418721199,0.0,-0.03515372797846794,-0.2106897532939911,1.070208191871643,8.456319808959961
1713723962405770912,0.03621898964047432,-0.013848437927663326,-0.034088462591171265,-0.040701426565647125,2.1799206733703613,10.261548042297363
1713723962415770912,0.008522115647792816,-0.026631610468029976,-0.05006742849946022,0.15083470940589905,2.8179752826690674,11.312602996826172
1713723962424770912,-0.024501081556081772,-0.019174760207533836,-0.04687163606286049,0.37828385829925537,1.5933412313461304,8.710105895996094
1713723962434770912,-0.08522115647792816,0.003195793367922306,-0.055393751710653305,0.45848962664604187,1.3718775510787964,9.305065155029297
1713723962444770912,-0.07669904083013535,0.02556634694337845,-0.055393751710653305,0.17238251864910126,1.6615759134292603,10.666168212890625
1713723962453770912,-0.044741105288267136,0.034088462591171265,-0.0511326938867569,-0.11372458189725876,0.7673416137695312,9.281123161315918
1713723962463770912,-0.047936901450157166,0.020240023732185364,-0.05326322093605995,-0.4489127993583679,0.4644751250743866,9.510966300964355
1713723962472770912,-0.01065264455974102,-0.004261057823896408,-0.049002163112163544,-0.7015010714530945,0.7852981686592102,10.182539939880371
1713723962482770912,-0.008522115647792816,-0.027696875855326653,-0.04687163606286049,-0.5374982953071594,0.9600748419761658,10.327388763427734
1713723962491770912,0.012783173471689224,-0.041545312851667404,-0.049002163112163544,-0.12210428714752197,0.8978255987167358,10.304643630981445
1713723962501770912,-0.01065264455974102,-0.04048004746437073,-0.06285060197114944,0.29807811975479126,0.8355763554573059,10.573991775512695
1713723962511770912,-0.017044231295585632,-0.014913702383637428,-0.06391586363315582,0.5051765441894531,0.7577648162841797,11.039664268493652
1713723962520770912,-0.02876213937997818,0.017044231295585632,-0.07456851005554199,0.4034229815006256,0.21308395266532898,10.357316017150879
1713723962530770912,-0.014913702383637428,0.03195793181657791,-0.05965480953454971,-0.2322375625371933,-0.3064578175544739,9.93593692779541
1713723962539770912,0.02130528911948204,0.017044231295585632,-0.06178533658385277,-0.7577648162841797,-0.7829039692878723,9.008183479309082
1713723962549770912,0.04261057823896408,0.0,-0.03302319720387459,-0.3842693567276001,-0.5171475410461426,8.761581420898438
1713723962559770912,0.04580637067556381,-0.015978965908288956,-0.04580637067556381,0.014365210197865963,0.13168108463287354,9.494206428527832
1713723962569770912,0.00532632227987051,-0.013848437927663326,-0.041545312851667404,-0.014365210197865963,0.3100491166114807,10.034099578857422
1713723962578770912,-0.05965480953454971,-0.004261057823896408,-0.047936901450157166,0.03711012750864029,0.14484919607639313,10.615890502929688
1713723962587770912,-0.09693906456232071,-0.001065264455974102,-0.05432848632335663,0.17717091739177704,-0.751779317855835,10.800243377685547
1713723962597770912,-0.04367584362626076,-0.02876213937997818,-0.06072007119655609,-0.7697358131408691,-2.647987127304077,9.730035781860352
1713723962606770912,-0.002130528911948204,-0.04048004746437073,-0.027696875855326653,-0.7757213115692139,-2.676717519760132,9.339780807495117
1713723962616770912,0.09480853378772736,-0.02556634694337845,-0.047936901450157166,0.6212953329086304,-0.9564835429191589,8.933963775634766
1713723962626770912,0.08948221057653427,0.037284255027770996,-0.04687163606286049,0.9277531504631042,0.3758896589279175,8.848969459533691
1713723962635770912,0.058589544147253036,0.07776430249214172,-0.0649811327457428,0.43335050344467163,1.1468225717544556,9.457096099853516
1713723962646770912,-0.044741105288267136,0.07776430249214172,-0.06285060197114944,-0.4106055796146393,0.9133879542350769,10.465055465698242
1713723962656460035,-0.15552860498428345,0.015978965908288956,-0.05752427875995636,-1.3503297567367554,-0.38307225704193115,13.24592113494873
1713723962666460035,-0.10546118021011353,-0.13209278881549835,-0.05326322093605995,-3.35786771774292,-3.999513864517212,12.073959350585938
1713723962675460035,-0.03302319720387459,-0.1896170675754547,0.03195793181657791,-1.6412252187728882,-5.4911017417907715,9.841365814208984
1713723962685460035,0.1619201898574829,-0.10546118021011353,-0.006391586735844612,3.0621838569641113,-3.1878795623779297,8.646658897399902
1713723962694460035,0.23755396902561188,0.07350324839353561,-0.047936901450157166,3.3267431259155273,-0.7038952708244324,7.830236434936523
1713723962705460035,0.24181503057479858,0.17896442115306854,-0.0649811327457428,1.0833762884140015,1.3946224451065063,8.458714485168457
1713723962714460035,0.14913702011108398,0.19600865244865417,-0.03834952041506767,-0.7817068696022034,2.5474305152893066,8.803479194641113
1713723962723460035,-0.026631610468029976,0.11824434995651245,-0.04580637067556381,-1.9045873880386353,2.764105796813965,9.798270225524902
1713723962733460035,-0.21198762953281403,0.02130528911948204,-0.01065264455974102,-1.930923581123352,2.011129379272461,10.541669845581055
1713723962742460035,-0.30360037088394165,-0.09480853378772736,-0.03302319720387459,-2.1284453868865967,-0.038307227194309235,11.172541618347168
1713723962752460035,-0.20985709130764008,-0.20772656798362732,0.015978965908288956,-2.34033203125,-3.536235809326172,9.469067573547363
1713723962762460035,-0.09054747968912125,-0.18216021358966827,0.02130528911948204,0.325611412525177,-4.279635429382324,8.796297073364258
1713723962771460035,0.0788295716047287,-0.07989483326673508,-0.00532632227987051,2.9759926795959473,-2.22660756111145,9.241618156433105
1713723962781460035,0.09054747968912125,0.06604639440774918,-0.044741105288267136,2.5917232036590576,-0.690727174282074,9.909600257873535
1713723962791460035,0.04048004746437073,0.16085493564605713,-0.05432848632335663,1.0522515773773193,0.104147769510746,11.749545097351074
1713723962800460035,-0.041545312851667404,0.13102751970291138,-0.06391586363315582,-1.3419500589370728,-0.6619967818260193,12.599486351013184
1713723962810460035,-0.014913702383637428,-0.03195793181657791,-0.03941478580236435,-3.113659143447876,-2.894589900970459,10.699687004089355
1713723962819460035,0.02556634694337845,-0.10013485699892044,0.017044231295585632,-1.2749123573303223,-2.8419172763824463,8.711302757263184
1713723962829460035,0.14061491191387177,-0.08309062570333481,-0.026631610468029976,1.4053963422775269,-0.8655039072036743,8.203731536865234
1713723962838460035,0.1257012039422989,0.004261057823896408,-0.019174760207533836,1.7944540977478027,0.3387795388698578,8.153453826904297
1713723962848460035,0.07669904083013535,0.07563377171754837,-0.041545312851667404,1.07379949092865,1.3982137441635132,9.163806915283203
1713723962857460035,-0.04261057823896408,0.10972223430871964,-0.03515372797846794,-0.08140285313129425,1.547851324081421,9.749189376831055
1713723962868460035,-0.16831177473068237,0.08309062570333481,-0.04367584362626076,-1.0247182846069336,1.0259153842926025,10.214860916137695
1713723962877460035,-0.17789916694164276,-0.026631610468029976,-0.037284255027770996,-2.2194249629974365,-0.99479079246521,9.770736694335938
1713723962886460035,-0.13102751970291138,-0.13315805792808533,0.01065264455974102,-2.2816741466522217,-2.675520420074463,9.245209693908691
1713723962896460035,-0.03941478580236435,-0.14061491191387177,0.01065264455974102,0.08978256583213806,-1.6112977266311646,9.90481185913086
1713723962906460035,-0.002130528911948204,-0.05645901337265968,-0.013848437927663326,1.8519150018692017,-0.7493851184844971,11.12465763092041
1713723962915460035,-0.03621898964047432,0.0511326938867569,-0.029827404767274857,1.8770540952682495,-1.4437036514282227,11.209651947021484
1713723962925460035,-0.03941478580236435,0.07989483326673508,-0.04580637067556381,0.26336216926574707,-2.7688941955566406,11.714828491210938
1713723962934460035,0.0511326938867569,0.011717909015715122,-0.03302319720387459,-1.523909330368042,-4.124012470245361,10.627861022949219
1713723962944460035,0.13315805792808533,-0.008522115647792816,0.024501081556081772,-0.50876784324646,-2.3702597618103027,9.674968719482422
1713723962953460035,0.23861923813819885,0.011717909015715122,-0.041545312851667404,0.729034423828125,-0.19273322820663452,8.505401611328125
1713723962963460035,0.17896442115306854,0.06711165606975555,-0.023435818031430244,0.4118026793003082,0.5159504413604736,7.514202117919922
1713723962973460035,0.05965480953454971,0.07137271761894226,-0.03941478580236435,-0.22505494952201843,1.8471266031265259,9.318232536315918
1713723962982460035,-0.0884169489145279,0.037284255027770996,-0.04261057823896408,-0.8475474119186401,1.9536685943603516,9.871293067932129
1713723962992460035,-0.23755396902561188,-0.019174760207533836,-0.019174760207533836,-0.9588777422904968,0.9564835429191589,9.952695846557617
1713723963001460035,-0.2631203234195709,-0.08415588736534119,-0.03195793181657791,-1.2653355598449707,-0.6823474764823914,10.123881340026855
1713723963011460035,-0.15446333587169647,-0.13635385036468506,0.001065264455974102,-1.4963760375976562,-3.022679567337036,9.080009460449219
1713723963021460035,-0.05432848632335663,-0.09800432622432709,0.014913702383637428,0.6212953329086304,-2.865859270095825,9.41519832611084
1713723963030460035,0.044741105288267136,-0.008522115647792816,-0.03195793181657791,2.4827871322631836,-1.5658079385757446,11.077971458435059
1713723963039460035,-0.002130528911948204,0.092678003013134,-0.03195793181657791,1.9261351823806763,-1.7920598983764648,12.664129257202148
1713723963049460035,0.03834952041506767,0.06924218684434891,-0.07669904083013535,-0.7410054206848145,-3.5194764137268066,12.54801082611084
1713723963059460035,0.08948221057653427,-0.00532632227987051,0.002130528911948204,-2.227804660797119,-4.345476150512695,9.645041465759277
1713723963068460035,0.20133498311042786,-0.041545312851667404,0.002130528911948204,-0.06344634294509888,-1.544260025024414,8.62630844116211
1713723963078460035,0.2460760921239853,0.013848437927663326,-0.026631610468029976,1.1552022695541382,1.0319008827209473,8.53532886505127
1713723963088460035,0.20772656798362732,0.08522115647792816,-0.037284255027770996,0.48123452067375183,1.7166426181793213,7.625532150268555
1713723963097460035,0.06285060197114944,0.09906959533691406,-0.030892668291926384,-0.4644751250743866,2.2697031497955322,8.42280101776123
1713723963107460035,-0.1161138266324997,0.047936901450157166,-0.041545312851667404,-1.235408067703247,2.337937831878662,9.9586820602417
1713723963116460035,-0.27164241671562195,-0.027696875855326653,-0.015978965908288956,-1.3108254671096802,1.2318167686462402,10.255562782287598
1713723963126460035,-0.3004045784473419,-0.10439591109752655,-0.01810949482023716,-1.4915876388549805,-0.9265560507774353,10.11550235748291
1713723963135460035,-0.18748654425144196,-0.16511598229408264,0.003195793367922306,-1.4736311435699463,-3.6750996112823486,9.204507827758789
1713723963145460035,-0.05965480953454971,-0.10333064943552017,0.03941478580236435,1.303642749786377,-3.870227098464966,9.7791166305542
1713723963155460035,0.03302319720387459,0.00532632227987051,-0.044741105288267136,2.8203694820404053,-2.072181463241577,12.016498565673828
1713723963164460035,0.03941478580236435,0.09693906456232071,-0.024501081556081772,1.2701239585876465,-1.9776105880737305,13.083114624023438
1713723963174460035,0.08628641813993454,0.06391586363315582,-0.07456851005554199,-1.0690110921859741,-3.8522703647613525,11.742362022399902
1713723963183460035,0.12783172726631165,0.014913702383637428,0.012783173471689224,-1.3467384576797485,-3.8714241981506348,9.364919662475586
1713723963193460035,0.22903186082839966,-0.019174760207533836,-0.024501081556081772,0.37469255924224854,-1.2078747749328613,8.243236541748047
1713723963203460035,0.21944446861743927,0.024501081556081772,-0.022370552644133568,0.5123591423034668,1.0462660789489746,8.210914611816406
1713723963212460035,0.16085493564605713,0.05326322093605995,-0.03621898964047432,0.061052143573760986,2.1799206733703613,8.093598365783691
1713723963222460035,0.015978965908288956,0.05326322093605995,-0.02556634694337845,-0.395043283700943,2.469619035720825,8.348581314086914
1713723963231460035,-0.15446333587169647,0.019174760207533836,-0.034088462591171265,-0.6153098344802856,2.1942858695983887,9.702502250671387
1713723963241460035,-0.28442561626434326,-0.02130528911948204,-0.024501081556081772,-0.529118537902832,1.0821791887283325,10.395623207092285
1713723963251460035,-0.25779399275779724,-0.08628641813993454,-0.02556634694337845,-1.2449848651885986,-1.7190368175506592,10.346542358398438
1713723963260460035,-0.14061491191387177,-0.1438107043504715,-0.004261057823896408,-1.6304513216018677,-4.315548419952393,9.684545516967773
1713723963269460035,-0.011717909015715122,-0.09587380290031433,0.02130528911948204,0.7038952708244324,-3.22139835357666,10.643423080444336
1713723963279460035,0.07776430249214172,0.002130528911948204,-0.047936901450157166,2.433706045150757,-1.6400281190872192,11.605892181396484
1713723963288460035,0.034088462591171265,0.10759171098470688,-0.03941478580236435,1.908178687095642,-1.821987509727478,11.240777015686035
1713723963298460035,0.055393751710653305,0.09906959533691406,-0.0788295716047287,-0.22744916379451752,-2.7952303886413574,10.952275276184082
1713723963308460035,0.09693906456232071,0.034088462591171265,-0.019174760207533836,-1.965639591217041,-3.046621561050415,9.516951560974121
1713723963317460035,0.17363810539245605,-0.019174760207533836,-0.002130528911948204,-0.9157821536064148,-0.9050082564353943,8.884881973266602
1713723963328460035,0.1896170675754547,-0.007456851191818714,-0.03302319720387459,0.12210428714752197,1.0127472877502441,8.632293701171875
1713723963336460035,0.13102751970291138,0.014913702383637428,-0.017044231295585632,0.07062894850969315,1.5203180313110352,7.862558364868164
1713723963346460035,-0.00532632227987051,0.015978965908288956,-0.026631610468029976,-0.10773907601833344,1.8938134908676147,8.918400764465332
1713723963356460035,-0.14487595856189728,0.00532632227987051,-0.03195793181657791,-0.24779987335205078,1.601720929145813,10.032901763916016
1713723963365460035,-0.2641855776309967,-0.011717909015715122,-0.02876213937997818,-0.18315643072128296,0.41778817772865295,10.157400131225586
1713723963375460035,-0.22050973773002625,-0.07030745595693588,-0.034088462591171265,-0.9660603404045105,-2.161964178085327,9.99100399017334
1713723963384460035,-0.11185276508331299,-0.11717908829450607,0.00532632227987051,-1.4844050407409668,-4.355052947998047,9.763554573059082
1713723963394460035,0.006391586735844612,-0.07137271761894226,0.01065264455974102,0.6105214357376099,-2.914940595626831,11.566388130187988
1713723963404460035,0.08948221057653427,0.020240023732185364,-0.037284255027770996,2.102108955383301,-1.5693992376327515,11.985373497009277
1713723963414460035,0.05432848632335663,0.09800432622432709,-0.04367584362626076,1.2186486721038818,-1.9931728839874268,11.353303909301758
1713723963423460035,0.10546118021011353,0.06924218684434891,-0.06711165606975555,-0.8810662031173706,-2.846705675125122,10.012551307678223
1713723963432460035,0.12144014239311218,0.023435818031430244,-0.002130528911948204,-1.3922282457351685,-2.007538080215454,8.778340339660645
1713723963442460035,0.19813919067382812,-0.019174760207533836,-0.034088462591171265,-0.4692635238170624,-0.05267243832349777,8.190564155578613
1713723963451460035,0.13848437368869781,-0.007456851191818714,-0.020240023732185364,-0.34596213698387146,1.0330979824066162,8.040925979614258
1713723963461460035,0.03515372797846794,-0.014913702383637428,-0.02876213937997818,-0.13407529890537262,1.9045873880386353,9.627084732055664
1713723963471460035,-0.10759171098470688,-0.024501081556081772,-0.022370552644133568,-0.038307227194309235,1.4915876388549805,10.338162422180176
1713723963481460035,-0.22583605349063873,-0.024501081556081772,-0.030892668291926384,0.06344634294509888,0.2609679698944092,10.39083480834961
1713723963490460035,-0.1768338978290558,-0.07669904083013535,-0.04261057823896408,-0.7398083209991455,-2.31758713722229,9.782708168029785
1713723963500460035,-0.06924218684434891,-0.10865697264671326,0.003195793367922306,-1.1899182796478271,-3.912125587463379,9.039308547973633
1713723963509460035,0.06711165606975555,-0.06604639440774918,-0.008522115647792816,0.711077868938446,-1.9907786846160889,9.974244117736816
1713723963519460035,0.11717908829450607,0.02130528911948204,-0.037284255027770996,1.9764134883880615,-0.4034229815006256,11.475408554077148
1713723963528460035,0.0649811327457428,0.09906959533691406,-0.049002163112163544,1.192312479019165,-0.8535329103469849,11.065999984741211
1713723963538460035,-0.007456851191818714,0.1022653877735138,-0.049002163112163544,-0.6057330369949341,-1.37906014919281,11.191695213317871
1713723963548460035,0.04580637067556381,-0.007456851191818714,-0.04580637067556381,-2.336740732192993,-2.5234885215759277,9.568427085876465
1713723963557460035,0.07350324839353561,-0.07243797928094864,0.014913702383637428,-1.3539210557937622,-1.7776947021484375,8.482656478881836
1713723963567460035,0.15552860498428345,-0.09161274135112762,-0.03515372797846794,0.46806642413139343,-0.07900865375995636,8.518569946289062
1713723963576460035,0.08948221057653427,-0.04048004746437073,-0.013848437927663326,0.9265560507774353,0.43933600187301636,8.754398345947266
1713723963586460035,-0.02130528911948204,0.008522115647792816,-0.03834952041506767,0.9205705523490906,1.2006921768188477,10.621875762939453
1713723963595460035,-0.12357067316770554,0.047936901450157166,-0.04580637067556381,0.4920084476470947,0.8236053586006165,10.18613052368164
1713723963605460035,-0.16937704384326935,0.03195793181657791,-0.049002163112163544,-0.6440402269363403,-0.5279214382171631,10.168174743652344
1713723963615460035,-0.08096009492874146,-0.05752427875995636,-0.0511326938867569,-2.1523873805999756,-2.5689783096313477,9.191340446472168
1713723963624460035,-0.02876213937997818,-0.08628641813993454,0.017044231295585632,-0.8678981065750122,-2.335543632507324,9.334992408752441
1713723963634460035,0.0511326938867569,-0.07243797928094864,-0.034088462591171265,1.3694833517074585,-1.0187327861785889,10.680533409118652
1713723963644460035,-0.007456851191818714,0.014913702383637428,-0.012783173471689224,1.546654224395752,-1.0690110921859741,11.101913452148438
1713723963653460035,-0.029827404767274857,0.05326322093605995,-0.0511326938867569,0.14604629576206207,-1.3874398469924927,12.162544250488281
1713723963662460035,0.05645901337265968,0.0,-0.04048004746437073,-1.7286136150360107,-3.0597896575927734,9.834183692932129
1713723963672460035,0.1065264418721199,-0.034088462591171265,0.01065264455974102,-0.7386112213134766,-2.336740732192993,8.645462036132812
1713723963682460035,0.21092236042022705,-0.04261057823896408,-0.04367584362626076,0.8212111592292786,-0.28730419278144836,8.236053466796875
1713723963691460035,0.13209278881549835,0.006391586735844612,-0.020240023732185364,0.7003039717674255,0.6368576288223267,8.427589416503906
1713723963701460035,0.007456851191818714,0.02876213937997818,-0.052197955548763275,0.295683890581131,1.666364312171936,10.663774490356445
1713723963711460035,-0.12357067316770554,0.034088462591171265,-0.03195793181657791,-0.1711854189634323,1.238999366760254,10.295066833496094
1713723963720460035,-0.20240023732185364,0.003195793367922306,-0.04048004746437073,-0.3387795388698578,-0.1149216815829277,9.800664901733398
1713723963729460035,-0.12676647305488586,-0.07776430249214172,-0.03621898964047432,-1.4700398445129395,-2.278082847595215,8.847772598266602
1713723963739460035,-0.07669904083013535,-0.09161274135112762,0.024501081556081772,-0.9050082564353943,-2.536656618118286,9.226056098937988
1713723963749460035,0.014913702383637428,-0.055393751710653305,-0.024501081556081772,1.3060369491577148,-1.2880804538726807,10.516530990600586
1713723963758460035,-0.012783173471689224,0.037284255027770996,0.0,1.7836802005767822,-1.0426747798919678,11.170147895812988
1713723963768460035,0.00532632227987051,0.06924218684434891,-0.0511326938867569,0.11372458189725876,-1.8303672075271606,12.36724853515625
1713723963777460035,0.08735168725252151,0.020240023732185364,-0.01810949482023716,-2.0697872638702393,-3.5027170181274414,10.551246643066406
1713723963787460035,0.1395496428012848,-0.030892668291926384,0.01065264455974102,-1.2689268589019775,-2.2409727573394775,9.252392768859863
1713723963796460035,0.22050973773002625,-0.05326322093605995,-0.02556634694337845,0.32680851221084595,-0.1999158412218094,8.524555206298828
1713723963806460035,0.15126754343509674,-0.011717909015715122,-0.012783173471689224,0.6991068720817566,0.5171475410461426,8.212111473083496
1713723963816460035,0.037284255027770996,0.024501081556081772,-0.03302319720387459,0.7050923705101013,1.5682021379470825,9.841365814208984
1713723963825460035,-0.08522115647792816,0.04580637067556381,-0.02130528911948204,0.3172317147254944,1.423352837562561,9.815030097961426
1713723963835460035,-0.1906823366880417,0.04580637067556381,-0.020240023732185364,-0.15083470940589905,0.4728548228740692,9.370904922485352
1713723963844460035,-0.16618125140666962,-0.012783173471689224,-0.02130528911948204,-1.1348515748977661,-1.1456254720687866,9.23323917388916
1713723963854460035,-0.09800432622432709,-0.08096009492874146,0.013848437927663326,-1.3287819623947144,-2.3116016387939453,8.856151580810547
1713723963864460035,-0.01810949482023716,-0.09374327212572098,0.022370552644133568,0.4920084476470947,-1.358709454536438,9.885658264160156
1713723963873460035,-0.004261057823896408,-0.023435818031430244,-0.002130528911948204,1.6807295083999634,-0.5985504388809204,11.778275489807129
1713723963883460035,-0.044741105288267136,0.07030745595693588,-0.019174760207533836,1.2904746532440186,-1.5622166395187378,12.621033668518066
1713723963892460035,0.017044231295585632,0.047936901450157166,-0.04580637067556381,-1.157596468925476,-4.310760021209717,11.587936401367188
1713723963902460035,0.08948221057653427,-0.02876213937997818,0.008522115647792816,-2.602497100830078,-5.043385982513428,9.348160743713379
1713723963911460035,0.23009711503982544,-0.06072007119655609,0.008522115647792816,-0.38546645641326904,-1.4472949504852295,8.846574783325195
1713723963921460035,0.258859246969223,-0.030892668291926384,-0.019174760207533836,1.2988543510437012,1.455674648284912,8.951919555664062
1713723963931460035,0.2034655064344406,0.03302319720387459,-0.03302319720387459,0.9768342971801758,1.9596540927886963,7.803900241851807
1713723963941460035,0.030892668291926384,0.06391586363315582,-0.017044231295585632,0.16400282084941864,2.360682725906372,9.227252960205078
1713723963950460035,-0.12357067316770554,0.04048004746437073,-0.02130528911948204,-0.3495534360408783,2.005143880844116,10.26394271850586
1713723963959460035,-0.2737729549407959,0.01810949482023716,0.02556634694337845,-0.295683890581131,0.6380547285079956,9.672574996948242
1713723963969460035,-0.2865561246871948,-0.014913702383637428,-0.024501081556081772,-0.7098807692527771,-1.1192892789840698,10.429141998291016
1713723963979460035,-0.148071750998497,-0.092678003013134,0.01065264455974102,-1.6699556112289429,-3.8498761653900146,8.610746383666992
1713723963988460035,-0.04687163606286049,-0.08948221057653427,0.044741105288267136,0.2861070930957794,-3.220201253890991,9.094374656677246
1713723963998460035,0.06178533658385277,-0.014913702383637428,-0.01065264455974102,2.513911724090576,-1.181538462638855,11.292252540588379
1713723964007460035,-0.004261057823896408,0.10972223430871964,-0.006391586735844612,2.0841524600982666,-1.2533645629882812,12.105083465576172
1713723964017460035,-0.017044231295585632,0.1299622654914856,-0.05006742849946022,-0.6607996821403503,-2.1595699787139893,13.366827964782715
1713723964027460035,0.09161274135112762,0.013848437927663326,-0.023435818031430244,-3.0142998695373535,-4.335899353027344,10.344148635864258
1713723964036460035,0.1757686287164688,-0.049002163112163544,0.034088462591171265,-1.3407529592514038,-2.6348190307617188,8.699331283569336
1713723964045460035,0.3163835406303406,-0.08628641813993454,-0.02876213937997818,0.47405192255973816,0.090979665517807,7.897274017333984
1713723964055460035,0.22050973773002625,-0.03195793181657791,-0.007456851191818714,0.6212953329086304,0.8750807046890259,7.587224960327148
1713723964065460035,0.08735168725252151,0.004261057823896408,-0.041545312851667404,0.43095630407333374,2.233790159225464,9.536105155944824
1713723964074460035,-0.08628641813993454,0.026631610468029976,-0.003195793367922306,0.32202011346817017,2.2194249629974365,9.653421401977539
1713723964084460035,-0.24394555389881134,0.022370552644133568,-0.02130528911948204,0.41539397835731506,1.4903905391693115,9.494206428527832
1713723964094460035,-0.3025350868701935,0.03834952041506767,0.002130528911948204,0.547075092792511,0.5985504388809204,9.027337074279785
1713723964103460035,-0.21198762953281403,-0.002130528911948204,-0.03834952041506767,-0.629675030708313,-1.8986018896102905,8.900444984436035
1713723964113460035,-0.09906959533691406,-0.04580637067556381,0.011717909015715122,-1.3982137441635132,-3.6954503059387207,9.859322547912598
1713723964122460035,0.004261057823896408,-0.04261057823896408,0.017044231295585632,0.264559268951416,-2.3235726356506348,12.338518142700195
1713723964132460035,0.008522115647792816,0.014913702383637428,-0.019174760207533836,1.3563152551651,-1.8339585065841675,13.747506141662598
1713723964142460035,0.05645901337265968,0.019174760207533836,-0.049002163112163544,-0.48123452067375183,-4.347870349884033,11.711236953735352
1713723964151460035,0.12144014239311218,-0.015978965908288956,-0.007456851191818714,-1.7621324062347412,-5.067327976226807,9.024943351745605
1713723964161460035,0.250337153673172,-0.03515372797846794,-0.00532632227987051,0.12449848651885986,-1.6543933153152466,8.74960994720459
1713723964171460035,0.29401299357414246,0.002130528911948204,-0.02556634694337845,1.380257248878479,1.3634978532791138,8.71489429473877
1713723964180460035,0.2322276532649994,0.05965480953454971,-0.04367584362626076,0.750582218170166,2.1715409755706787,7.565677165985107
1713723964189460035,0.05645901337265968,0.07243797928094864,-0.02130528911948204,-0.14604629576206207,2.8203694820404053,8.779537200927734
1713723964199460035,-0.11930961906909943,0.037284255027770996,-0.029827404767274857,-0.6703764796257019,2.649184226989746,10.070012092590332
1713723964209460035,-0.2822950780391693,-0.001065264455974102,0.007456851191818714,-0.5398924946784973,1.2868833541870117,9.673771858215332
1713723964218460035,-0.32703617215156555,-0.034088462591171265,-0.026631610468029976,-0.15322890877723694,-0.6105214357376099,10.075997352600098
1713723964228460035,-0.18855179846286774,-0.10865697264671326,-0.019174760207533836,-1.6041151285171509,-3.914519786834717,8.99740982055664
1713723964237460035,-0.09587380290031433,-0.10972223430871964,0.03195793181657791,-0.6919242739677429,-4.314351558685303,10.110713958740234
1713723964248460035,0.03621898964047432,-0.04048004746437073,-0.014913702383637428,2.4001872539520264,-2.279279947280884,12.114660263061523
1713723964257460035,0.007456851191818714,0.09161274135112762,-0.01810949482023716,2.292448043823242,-1.8926163911819458,13.186065673828125
1713723964266460035,0.10972223430871964,0.10013485699892044,-0.07350324839353561,-1.2210428714752197,-3.600879192352295,11.97100830078125
1713723964276460035,0.17470337450504303,0.049002163112163544,0.014913702383637428,-2.4241292476654053,-4.018667697906494,8.798690795898438
1713723964285460035,0.3014698326587677,-0.013848437927663326,-0.003195793367922306,-0.08499415963888168,-0.954089343547821,8.129511833190918
1713723964295460035,0.2695119082927704,-0.01810949482023716,-0.004261057823896408,0.4381389021873474,1.7932569980621338,8.394070625305176
1713723964304460035,0.185356006026268,0.002130528911948204,-0.023435818031430244,0.10055647045373917,2.898181200027466,8.0145902633667
1713723964314460035,0.001065264455974102,0.009587380103766918,-0.002130528911948204,-0.05626373738050461,3.043030261993408,8.42280101776123
1713723964324460035,-0.1757686287164688,0.00532632227987051,-0.012783173471689224,0.09696516394615173,2.449268341064453,9.613916397094727
1713723964334460035,-0.3142530024051666,0.01065264455974102,-0.001065264455974102,0.40940847992897034,1.0031704902648926,9.5408935546875
1713723964343460035,-0.3430151343345642,0.009587380103766918,-0.012783173471689224,0.41539397835731506,-0.8403647541999817,10.755950927734375
1713723964352460035,-0.17257283627986908,-0.06285060197114944,-0.03195793181657791,-1.868674397468567,-4.513070106506348,9.819818496704102
1713723964362460035,-0.07669904083013535,-0.08522115647792816,0.04580637067556381,-1.0630255937576294,-5.2014031410217285,10.224437713623047
1713723964371460035,0.07350324839353561,-0.03515372797846794,-0.009587380103766918,2.358288526535034,-2.5115175247192383,12.090718269348145
1713723964381460035,0.030892668291926384,0.09587380290031433,-0.007456851191818714,2.361879825592041,-1.1887211799621582,12.212822914123535
1713723964391460035,0.07989483326673508,0.13528858125209808,-0.07030745595693588,-0.21547815203666687,-1.9141641855239868,11.404779434204102
1713723964400460035,0.14594122767448425,0.08096009492874146,-0.019174760207533836,-2.5079262256622314,-3.0119056701660156,8.614337921142578
1713723964410460035,0.21944446861743927,0.0,0.004261057823896408,-1.315613865852356,-0.8978255987167358,8.367734909057617
1713723964419460035,0.23116238415241241,-0.047936901450157166,-0.017044231295585632,0.11851298063993454,1.3874398469924927,8.56645393371582
1713723964429460035,0.1203748807311058,-0.037284255027770996,-0.009587380103766918,0.24899697303771973,1.9189525842666626,8.403647422790527
1713723964439460035,-0.041545312851667404,-0.02130528911948204,-0.029827404767274857,0.31364041566848755,2.027888774871826,9.339780807495117
1713723964448460035,-0.1906823366880417,0.003195793367922306,-0.011717909015715122,0.4453215003013611,1.382651448249817,9.68933391571045
1713723964458460035,-0.2865561246871948,0.024501081556081772,-0.023435818031430244,0.5710170865058899,0.23582886159420013,9.654618263244629
1713723964467460035,-0.2460760921239853,0.01810949482023716,-0.030892668291926384,-0.5566518902778625,-1.5957354307174683,10.02691650390625
1713723964478460035,-0.10759171098470688,-0.055393751710653305,-0.01810949482023716,-1.7130513191223145,-3.934870481491089,9.8784761428833
1713723964487460035,-0.01065264455974102,-0.05752427875995636,0.026631610468029976,0.243011474609375,-3.162740468978882,11.419144630432129
1713723964496460035,0.08309062570333481,0.001065264455974102,-0.024501081556081772,1.8399440050125122,-1.8064250946044922,11.919532775878906
1713723964505460035,0.023435818031430244,0.09906959533691406,-0.02876213937997818,1.194706678390503,-2.1128828525543213,11.352107048034668
1713723964515460035,0.09587380290031433,0.07669904083013535,-0.06711165606975555,-1.2006921768188477,-3.199850559234619,10.74876880645752
1713723964525460035,0.13741911947727203,0.015978965908288956,-0.006391586735844612,-2.054224967956543,-2.9257144927978516,9.002198219299316
1713723964534460035,0.23755396902561188,-0.05752427875995636,-0.014913702383637428,-0.36990416049957275,-0.30286651849746704,8.283937454223633
1713723964544460035,0.18642127513885498,-0.052197955548763275,-0.02876213937997818,0.24660277366638184,1.6160861253738403,8.468291282653809
1713723964554460035,0.09693906456232071,-0.017044231295585632,-0.04048004746437073,0.5231330394744873,2.4851813316345215,8.761581420898438
1713723964563460035,-0.058589544147253036,0.014913702383637428,-0.026631610468029976,0.4824316203594208,2.3092074394226074,9.244012832641602
1713723964573460035,-0.18002969026565552,0.03515372797846794,-0.034088462591171265,0.363918662071228,1.4856021404266357,9.601945877075195
1713723964582460035,-0.260989785194397,0.047936901450157166,-0.007456851191818714,0.1843535304069519,0.2454056739807129,9.239224433898926
1713723964592460035,-0.20026971399784088,0.002130528911948204,-0.04261057823896408,-1.3120225667953491,-1.909375786781311,9.496601104736328
1713723964601460035,-0.10759171098470688,-0.07030745595693588,0.017044231295585632,-2.0159177780151367,-3.4967315196990967,9.57441234588623
1713723964611460035,-0.024501081556081772,-0.08522115647792816,0.024501081556081772,0.208295539021492,-2.0697872638702393,11.696871757507324
1713723964620460035,-0.002130528911948204,-0.011717909015715122,0.01065264455974102,1.6124948263168335,-1.1552022695541382,12.849679946899414
1713723964631460035,-0.004261057823896408,0.07243797928094864,-0.014913702383637428,0.456095427274704,-2.537853717803955,11.832144737243652
1713723964639460035,0.09906959533691406,0.044741105288267136,-0.017044231295585632,-1.8543092012405396,-4.616020679473877,9.922768592834473
1713723964649460035,0.1757686287164688,0.012783173471689224,0.044741105288267136,-1.4760253429412842,-3.156754970550537,9.255983352661133
1713723964659460035,0.3014698326587677,-0.024501081556081772,0.009587380103766918,0.1843535304069519,-0.005985504016280174,8.3306245803833
1713723964668460035,0.2130528837442398,0.015978965908288956,0.02556634694337845,0.16400282084941864,1.5382745265960693,7.657854080200195
1713723964678460035,0.07669904083013535,0.03515372797846794,0.003195793367922306,0.0586579404771328,2.9927520751953125,8.865728378295898
1713723964688460035,-0.11398329585790634,0.03515372797846794,0.03302319720387459,-0.18076223134994507,3.0382418632507324,9.387664794921875
1713723964697460035,-0.27483823895454407,0.014913702383637428,0.020240023732185364,-0.30526071786880493,2.030282974243164,9.78869342803955
1713723964707460035,-0.3387540876865387,-0.011717909015715122,0.04048004746437073,-0.31603461503982544,0.05985504016280174,10.140641212463379
1713723964716460035,-0.20559602975845337,-0.10546118021011353,0.017044231295585632,-2.1499931812286377,-3.736151695251465,9.246406555175781
1713723964726460035,-0.10972223430871964,-0.12250541150569916,0.10120011866092682,-1.1683703660964966,-4.6255974769592285,9.84735107421875
1713723964736460035,0.034088462591171265,-0.06285060197114944,0.044741105288267136,2.2828712463378906,-2.3235726356506348,11.943474769592285
1713723964745460035,0.0,0.08096009492874146,0.047936901450157166,2.557007312774658,-1.5717934370040894,12.868833541870117
1713723964755460035,0.06711165606975555,0.10333064943552017,-0.020240023732185364,-0.11252747476100922,-3.116053342819214,12.009315490722656
1713723964764460035,0.14061491191387177,0.05006742849946022,0.04580637067556381,-2.5953145027160645,-4.19344425201416,8.857349395751953
1713723964774460035,0.2545982003211975,-0.008522115647792816,0.04580637067556381,-1.1037269830703735,-1.3311761617660522,8.414422035217285
1713723964784460035,0.2727077007293701,-0.027696875855326653,0.03195793181657791,0.5422866940498352,1.5095441341400146,8.710105895996094
1713723964793460035,0.18216021358966827,0.0,0.03195793181657791,0.35673603415489197,2.2002713680267334,7.987056732177734
1713723964803460035,0.003195793367922306,0.02130528911948204,0.03302319720387459,-0.03711012750864029,2.5270798206329346,8.9866361618042
1713723964812460035,-0.16511598229408264,0.023435818031430244,0.04580637067556381,-0.24779987335205078,2.013523578643799,9.740809440612793
1713723964822460035,-0.3014698326587677,0.020240023732185364,0.05965480953454971,-0.1173158809542656,0.711077868938446,9.678560256958008
1713723964831460035,-0.3014698326587677,0.001065264455974102,0.04048004746437073,-0.7050923705101013,-1.1228805780410767,10.552443504333496
1713723964841460035,-0.15233281254768372,-0.092678003013134,0.037284255027770996,-2.013523578643799,-4.212597846984863,9.403226852416992
1713723964850460035,-0.058589544147253036,-0.10759171098470688,0.08948221057653427,0.05147533491253853,-3.9647979736328125,10.516530990600586
1713723964861460035,0.058589544147253036,-0.05645901337265968,0.01810949482023716,2.7126305103302,-2.116474151611328,12.304999351501465
1713723964870460035,-0.007456851191818714,0.05432848632335663,0.01065264455974102,2.558204412460327,-2.117671251296997,11.713631629943848
1713723964879460035,0.07243797928094864,0.08415588736534119,-0.05432848632335663,0.6009446382522583,-3.021482467651367,10.706870079040527
1713723964889460035,0.15020228922367096,0.07456851005554199,-0.011717909015715122,-1.0510544776916504,-3.1088707447052,8.461108207702637
1713723964898460035,0.2790992856025696,0.01810949482023716,-0.013848437927663326,-0.3076549172401428,-0.5422866940498352,7.7165117263793945
1713723964908460035,0.23968449234962463,0.006391586735844612,-0.034088462591171265,0.15442600846290588,1.8974047899246216,8.725667953491211
1713723964917460035,0.1161138266324997,0.006391586735844612,-0.034088462591171265,0.08499415963888168,2.7497406005859375,9.425971984863281
1713723964928460035,-0.1065264418721199,0.0,-0.030892668291926384,0.1759738177061081,2.316390037536621,10.070012092590332
1713723964937460035,-0.27057716250419617,0.0,-0.03515372797846794,0.23582886159420013,1.2533645629882812,10.232817649841309
1713723964946460035,-0.30892667174339294,-0.004261057823896408,-0.023435818031430244,-0.25977087020874023,-0.872686505317688,10.335768699645996
1713723964956460035,-0.14594122767448425,-0.08522115647792816,-0.05006742849946022,-2.1535844802856445,-4.49870491027832,8.857349395751953
1713723964965460035,-0.03834952041506767,-0.092678003013134,0.030892668291926384,-0.6560112833976746,-4.503493309020996,9.26795482635498
1713723964975460035,0.10120011866092682,-0.04687163606286049,-0.047936901450157166,2.365471124649048,-1.8626888990402222,11.54005241394043
1713723964985460035,0.03621898964047432,0.06924218684434891,-0.029827404767274857,2.343923330307007,-0.9983820915222168,12.071564674377441
1713723964994460035,0.001065264455974102,0.13848437368869781,-0.06924218684434891,1.015141487121582,-0.8367734551429749,12.747926712036133
1713723965004460035,0.09161274135112762,0.1065264418721199,-0.05752427875995636,-2.3032219409942627,-2.669534921646118,9.032125473022461
1713723965014460035,0.13528858125209808,0.044741105288267136,0.0,-2.4660277366638184,-2.2577321529388428,7.182604789733887
1713723965023460035,0.23329290747642517,-0.024501081556081772,-0.022370552644133568,-0.45489832758903503,0.18315643072128296,7.85657262802124
1713723965033460035,0.12357067316770554,-0.030892668291926384,0.003195793367922306,-0.16879121959209442,1.7417817115783691,9.159018516540527
1713723965042460035,-0.01810949482023716,-0.022370552644133568,-0.026631610468029976,0.20231004059314728,2.4684219360351562,10.78468132019043
1713723965051460035,-0.17896442115306854,0.008522115647792816,-0.001065264455974102,0.35913026332855225,1.4484920501708984,9.746794700622559
1713723965061460035,-0.2641855776309967,0.022370552644133568,-0.027696875855326653,0.2346317619085312,-0.03711012750864029,9.864110946655273
1713723965071460035,-0.13848437368869781,-0.034088462591171265,-0.026631610468029976,-1.6160861253738403,-2.977189779281616,8.827421188354492
1713723965080460035,-0.06072007119655609,-0.07137271761894226,0.03302319720387459,-1.4879963397979736,-3.529053211212158,9.070432662963867
1713723965091460035,0.07350324839353561,-0.06711165606975555,-0.004261057823896408,0.8271966576576233,-1.3084311485290527,10.60511589050293
1713723965099460035,0.011717909015715122,0.019174760207533836,0.00532632227987051,1.7561469078063965,-0.3711012601852417,12.021286964416504
1713723965109460035,-0.0511326938867569,0.07989483326673508,-0.03621898964047432,1.721431016921997,-0.7876923680305481,12.949039459228516
1713723965119460035,0.009587380103766918,0.05965480953454971,-0.03195793181657791,-0.7661445140838623,-3.444059133529663,10.18493366241455
1713723965129460035,0.08522115647792816,0.004261057823896408,-0.002130528911948204,-2.185906171798706,-4.067748546600342,7.9379754066467285
1713723965138460035,0.23329290747642517,-0.029827404767274857,0.00532632227987051,-0.6452373266220093,-0.910993754863739,7.988254070281982
1713723965148460035,0.2087918221950531,-0.020240023732185364,-0.02130528911948204,0.5207388401031494,1.7920598983764648,9.408015251159668
1713723965156939018,0.10759171098470688,0.020240023732185364,-0.030892668291926384,0.6572083830833435,2.318784236907959,9.785101890563965
1713723965166939018,-0.08309062570333481,0.04687163606286049,-0.020240023732185364,0.35075053572654724,1.6915035247802734,9.78989028930664
1713723965175939018,-0.21944446861743927,0.04367584362626076,-0.034088462591171265,-0.05746084079146385,0.8619126081466675,9.876081466674805
1713723965185939018,-0.24394555389881134,0.023435818031430244,-0.003195793367922306,-1.1635819673538208,-0.6727706789970398,10.201693534851074
1713723965194939018,-0.11824434995651245,-0.06285060197114944,-0.03195793181657791,-2.389413356781006,-3.380612850189209,8.983044624328613
1713723965204939018,-0.04048004746437073,-0.09054747968912125,0.0511326938867569,-0.5590460896492004,-3.1723172664642334,9.20211410522461
1713723965213939018,0.04687163606286049,-0.06391586363315582,-0.022370552644133568,1.7357962131500244,-1.2641384601593018,11.051634788513184
1713723965223939018,-0.01810949482023716,0.029827404767274857,-0.003195793367922306,1.9548656940460205,-1.159990668296814,11.561599731445312
1713723965233939018,-0.05645901337265968,0.07563377171754837,-0.04048004746437073,0.872686505317688,-1.4149731397628784,12.72637939453125
1713723965243939018,0.04687163606286049,0.04367584362626076,-0.041545312851667404,-1.8339585065841675,-3.336319923400879,9.996989250183105
1713723965252939018,0.11291802674531937,0.026631610468029976,0.029827404767274857,-1.3323732614517212,-2.7904419898986816,8.076839447021484
1713723965262939018,0.2545982003211975,-0.004261057823896408,-0.034088462591171265,0.6236895322799683,-0.3232172131538391,7.717709064483643
1713723965271939018,0.1619201898574829,0.029827404767274857,0.014913702383637428,0.4513069987297058,1.2665326595306396,8.680177688598633
1713723965281939018,0.02556634694337845,0.04048004746437073,-0.041545312851667404,0.12689268589019775,2.5246856212615967,10.742782592773438
1713723965290939018,-0.14168016612529755,0.044741105288267136,-0.002130528911948204,-0.21428105235099792,1.844732403755188,9.919177055358887
1713723965300939018,-0.26205503940582275,0.020240023732185364,-0.02556634694337845,-0.46806642413139343,0.45010989904403687,9.306262016296387
1713723965309939018,-0.18642127513885498,-0.05326322093605995,-0.019174760207533836,-1.5370774269104004,-2.03507137298584,8.701725959777832
1713723965320939018,-0.10120011866092682,-0.10013485699892044,0.019174760207533836,-1.5861586332321167,-3.2178070545196533,9.036913871765137
1713723965329939018,0.014913702383637428,-0.09587380290031433,0.0,0.39384618401527405,-1.5562310218811035,10.911574363708496
1713723965338939018,0.007456851191818714,-0.012783173471689224,-0.007456851191818714,1.745373010635376,-0.6308721303939819,12.121843338012695
1713723965348939018,-0.03834952041506767,0.06178533658385277,-0.04687163606286049,1.7058687210083008,-1.4209586381912231,12.40196418762207
1713723965357939018,0.027696875855326653,0.05752427875995636,-0.041545312851667404,-0.38786065578460693,-3.750516891479492,10.553641319274902
1713723965367939018,0.08735168725252151,0.03302319720387459,0.003195793367922306,-1.4712369441986084,-3.9228994846343994,8.464699745178223
1713723965377939018,0.22050973773002625,0.022370552644133568,0.002130528911948204,-0.30526071786880493,-0.910993754863739,8.073247909545898
1713723965387939018,0.19600865244865417,0.034088462591171265,-0.014913702383637428,0.06703764945268631,1.5310919284820557,9.034520149230957
1713723965396939018,0.09587380290031433,0.034088462591171265,-0.017044231295585632,-0.14365209639072418,2.229001760482788,9.758766174316406
1713723965405939018,-0.09374327212572098,0.017044231295585632,-0.009587380103766918,-0.21667525172233582,1.721431016921997,9.986215591430664
1713723965415939018,-0.23968449234962463,-0.019174760207533836,-0.02556634694337845,-0.15682020783424377,0.9528922438621521,10.283096313476562
1713723965424939018,-0.24394555389881134,-0.04367584362626076,0.0,-0.834379255771637,-0.751779317855835,9.576807022094727
1713723965434939018,-0.12357067316770554,-0.07456851005554199,-0.017044231295585632,-1.3323732614517212,-3.1962592601776123,8.615534782409668
1713723965444939018,-0.024501081556081772,-0.04048004746437073,0.030892668291926384,0.40222588181495667,-2.9927520751953125,9.497797966003418
1713723965453939018,0.055393751710653305,0.01065264455974102,-0.03195793181657791,1.9021931886672974,-1.4832079410552979,11.183316230773926
1713723965463939018,-0.002130528911948204,0.08309062570333481,-0.020240023732185364,1.4185644388198853,-1.3778630495071411,11.759121894836426
1713723965473939018,-0.002130528911948204,0.055393751710653305,-0.06711165606975555,-0.6224924325942993,-2.3104045391082764,11.773487091064453
1713723965482939018,0.0511326938867569,-0.012783173471689224,-0.012783173471689224,-2.013523578643799,-3.1926679611206055,9.84735107421875
1713723965492939018,0.13209278881549835,-0.04261057823896408,0.003195793367922306,-0.45848962664604187,-1.2916717529296875,9.014169692993164
1713723965501939018,0.2034655064344406,-0.007456851191818714,-0.03621898964047432,0.8607155084609985,0.6344634294509888,8.5903959274292
1713723965511939018,0.15659387409687042,0.04687163606286049,-0.02876213937997818,0.5841851830482483,1.0678139925003052,7.850587368011475
1713723965520939018,0.019174760207533836,0.07137271761894226,-0.03302319720387459,-0.004788403399288654,1.8088194131851196,9.38167953491211
1713723965530939018,-0.13741911947727203,0.05432848632335663,-0.03515372797846794,-0.5339069962501526,1.6759411096572876,10.442310333251953
1713723965539939018,-0.26738137006759644,0.012783173471689224,-0.012783173471689224,-0.7386112213134766,0.355538934469223,10.351330757141113
1713723965549939018,-0.20985709130764008,-0.07776430249214172,-0.023435818031430244,-1.5574281215667725,-2.3678653240203857,9.421183586120605
1713723965558939018,-0.11717908829450607,-0.11398329585790634,0.030892668291926384,-1.4688427448272705,-3.732560396194458,8.686163902282715
1713723965568939018,0.02130528911948204,-0.08309062570333481,0.01065264455974102,0.8259995579719543,-1.7549498081207275,9.93593692779541
1713723965578939018,0.04367584362626076,0.020240023732185364,-0.01810949482023716,2.0231003761291504,-0.2861070930957794,11.621455192565918
1713723965587939018,-0.009587380103766918,0.10546118021011353,-0.041545312851667404,1.4640543460845947,-0.8068459630012512,11.682506561279297
1713723965597939018,-0.026631610468029976,0.08735168725252151,-0.05326322093605995,-0.5051765441894531,-2.516305923461914,11.319785118103027
1713723965607939018,0.03834952041506767,-0.01065264455974102,-0.02130528911948204,-2.1380221843719482,-3.794809579849243,9.973047256469727
1713723965616939018,0.1203748807311058,-0.04261057823896408,0.02130528911948204,-0.6823474764823914,-1.889025092124939,9.471461296081543
1713723965626939018,0.20985709130764008,-0.011717909015715122,-0.03302319720387459,0.8822633028030396,0.16998831927776337,8.78193187713623
1713723965635939018,0.16405072808265686,0.04580637067556381,-0.019174760207533836,0.7781155109405518,0.5997475385665894,7.558494567871094
1713723965645939018,0.03515372797846794,0.07776430249214172,-0.02876213937997818,0.2585737705230713,1.6843209266662598,9.329007148742676
1713723965654939018,-0.10546118021011353,0.07243797928094864,-0.04261057823896408,-0.40940847992897034,1.8507179021835327,10.170568466186523
1713723965664939018,-0.2407497614622116,0.037284255027770996,-0.017044231295585632,-0.8391676545143127,0.7793126106262207,9.797073364257812
1713723965674939018,-0.23861923813819885,-0.04580637067556381,-0.030892668291926384,-1.7705121040344238,-1.2773065567016602,9.825803756713867
1713723965683939018,-0.1438107043504715,-0.12250541150569916,0.012783173471689224,-2.126051187515259,-3.250128746032715,9.442730903625488
1713723965693939018,-0.049002163112163544,-0.11185276508331299,0.02130528911948204,0.2513911724090576,-2.2649147510528564,10.556035041809082
1713723965702939018,0.03941478580236435,-0.02876213937997818,-0.02556634694337845,2.098517656326294,-1.2306196689605713,10.929530143737793
1713723965713939018,-0.002130528911948204,0.07456851005554199,-0.02876213937997818,1.8016366958618164,-1.5837644338607788,10.615890502929688
1713723965721939018,0.003195793367922306,0.10013485699892044,-0.06391586363315582,0.12210428714752197,-2.054224967956543,11.578359603881836
1713723965731939018,0.06072007119655609,0.04261057823896408,-0.029827404767274857,-1.6077064275741577,-2.940079689025879,10.231620788574219
1713723965741939018,0.10439591109752655,0.002130528911948204,0.009587380103766918,-0.8918401002883911,-1.644816517829895,9.408015251159668
1713723965750939018,0.15872439742088318,-0.007456851191818714,-0.03515372797846794,0.1173158809542656,-0.0347159244120121,8.765172004699707
1713723965760939018,0.1065264418721199,0.01065264455974102,-0.014913702383637428,0.06464344263076782,0.39384618401527405,8.122328758239746
1713723965769939018,0.012783173471689224,0.013848437927663326,-0.03515372797846794,-0.1975216418504715,1.180341362953186,9.321824073791504
1713723965779939018,-0.09161274135112762,0.009587380103766918,-0.03515372797846794,-0.4704606235027313,1.2342109680175781,9.674968719482422
1713723965788939018,-0.1810949593782425,-0.008522115647792816,-0.027696875855326653,-0.5231330394744873,0.5147533416748047,9.567230224609375
1713723965798939018,-0.1992044448852539,-0.034088462591171265,-0.029827404767274857,-0.7996633648872375,-0.5781996846199036,9.96945571899414
1713723965807939018,-0.12783172726631165,-0.07669904083013535,-0.023435818031430244,-1.45806884765625,-2.3977930545806885,9.758766174316406
1713723965817939018,-0.08309062570333481,-0.08628641813993454,-0.001065264455974102,-0.47884032130241394,-2.804807186126709,10.566808700561523
1713723965827939018,-0.029827404767274857,-0.06072007119655609,-0.020240023732185364,1.4688427448272705,-2.054224967956543,11.75433349609375
1713723965836939018,-0.01065264455974102,-0.01810949482023716,-0.04580637067556381,1.4449007511138916,-2.6587610244750977,11.941081047058105
1713723965846939018,0.05965480953454971,0.008522115647792816,-0.030892668291926384,0.29209259152412415,-3.536235809326172,11.03128433227539
1713723965856939018,0.13102751970291138,0.047936901450157166,-0.011717909015715122,0.4620809257030487,-2.4684219360351562,9.706093788146973
1713723965866939018,0.22370553016662598,0.09693906456232071,-0.04367584362626076,0.7242460250854492,-0.7374141216278076,8.392873764038086
1713723965875939018,0.2087918221950531,0.12144014239311218,-0.037284255027770996,-0.24779987335205078,0.39384618401527405,7.688978672027588
1713723965884939018,0.1299622654914856,0.07563377171754837,-0.03621898964047432,-1.2282254695892334,1.624465823173523,8.833407402038574
1713723965894939018,-0.00532632227987051,-0.001065264455974102,-0.027696875855326653,-1.665167212486267,1.985990285873413,9.583989143371582
1713723965904939018,-0.1576591432094574,-0.07350324839353561,-0.023435818031430244,-1.3551181554794312,1.4736311435699463,9.963470458984375
1713723965913939018,-0.24714134633541107,-0.1022653877735138,-0.015978965908288956,-0.547075092792511,0.4920084476470947,9.588777542114258
1713723965923939018,-0.2407497614622116,-0.08948221057653427,-0.014913702383637428,-0.07900865375995636,-0.9097966551780701,9.334992408752441
1713723965933939018,-0.13635385036468506,-0.07776430249214172,-0.024501081556081772,-0.3579331338405609,-2.8323404788970947,9.522936820983887
1713723965942939018,-0.05752427875995636,-0.03941478580236435,-0.01065264455974102,0.2609679698944092,-3.4081461429595947,10.705672264099121
1713723965951939018,0.003195793367922306,-0.002130528911948204,-0.030892668291926384,1.313219666481018,-2.541445016860962,12.551602363586426
1713723965961939018,0.03515372797846794,0.011717909015715122,-0.05006742849946022,0.5877764821052551,-2.9544448852539062,12.429497718811035
1713723965970939018,0.07776430249214172,0.007456851191818714,-0.019174760207533836,-0.23104046285152435,-3.5266590118408203,10.697293281555176
1713723965980939018,0.14061491191387177,0.03195793181657791,-0.004261057823896408,0.4920084476470947,-2.0015525817871094,9.59596061706543
1713723965990939018,0.22050973773002625,0.09161274135112762,-0.03621898964047432,0.7158662676811218,-0.30885201692581177,8.38808536529541
1713723965999939018,0.2130528837442398,0.11717908829450607,-0.034088462591171265,-0.3387795388698578,0.5650315880775452,7.247248649597168
1713723966009939018,0.12676647305488586,0.06604639440774918,-0.030892668291926384,-1.4113818407058716,1.7693150043487549,8.169015884399414
1713723966019939018,-0.008522115647792816,-0.017044231295585632,-0.024501081556081772,-1.823184609413147,2.3965959548950195,9.300276756286621
1713723966028939018,-0.1672465205192566,-0.08628641813993454,-0.019174760207533836,-1.357512354850769,1.942894697189331,9.75517463684082
1713723966038939018,-0.2737729549407959,-0.11504855751991272,-0.00532632227987051,-0.27054479718208313,0.8080430626869202,9.625887870788574
1713723966047939018,-0.29401299357414246,-0.09054747968912125,-0.003195793367922306,0.6727706789970398,-0.811634361743927,10.107122421264648
1713723966057939018,-0.1576591432094574,-0.08096009492874146,-0.030892668291926384,-0.477643221616745,-3.824737071990967,10.436325073242188
1713723966066939018,-0.047936901450157166,-0.06711165606975555,0.008522115647792816,-0.7601590156555176,-5.227739334106445,10.981005668640137
1713723966076939018,0.04580637067556381,-0.03195793181657791,-0.009587380103766918,1.5586252212524414,-3.1890766620635986,12.504915237426758
1713723966085939018,0.07350324839353561,0.034088462591171265,-0.041545312851667404,2.276885747909546,-1.8590975999832153,12.452242851257324
1713723966096939018,0.11824434995651245,0.08202536404132843,-0.055393751710653305,0.5351040959358215,-2.5258827209472656,10.279504776000977
1713723966104939018,0.15552860498428345,0.09800432622432709,-0.017044231295585632,-0.5183446407318115,-2.2816741466522217,8.485051155090332
1713723966114939018,0.21411815285682678,0.08628641813993454,-0.03941478580236435,-0.4572925269603729,-0.5267243385314941,8.1139497756958
1713723966124939018,0.18748654425144196,0.05752427875995636,-0.023435818031430244,-0.9457096457481384,1.0761936902999878,8.324639320373535
1713723966133939018,0.11078750342130661,-0.009587380103766918,-0.02876213937997818,-1.3958195447921753,1.91057288646698,8.469488143920898
1713723966143939018,-0.03302319720387459,-0.06178533658385277,-0.007456851191818714,-1.2449848651885986,2.0877437591552734,9.08719253540039
1713723966153939018,-0.16831177473068237,-0.09161274135112762,-0.02130528911948204,-0.47165772318840027,1.6747440099716187,9.852139472961426
1713723966162939018,-0.2514024078845978,-0.07137271761894226,-0.002130528911948204,0.4129997789859772,0.4129997789859772,9.403226852416992
1713723966172939018,-0.25353294610977173,-0.037284255027770996,-0.022370552644133568,0.2669534981250763,-1.2617442607879639,10.518924713134766
1713723966182939018,-0.1065264418721199,-0.06285060197114944,-0.03515372797846794,-1.423352837562561,-4.301183223724365,11.367669105529785
1713723966191939018,-0.012783173471689224,-0.07350324839353561,0.023435818031430244,-0.7374141216278076,-5.190629005432129,11.323376655578613
1713723966200939018,0.08735168725252151,-0.05006742849946022,-0.020240023732185364,1.942894697189331,-2.9316999912261963,11.718420028686523
1713723966210939018,0.08628641813993454,0.04580637067556381,-0.023435818031430244,2.3930046558380127,-1.5514426231384277,10.953472137451172
1713723966219939018,0.11291802674531937,0.1161138266324997,-0.04687163606286049,0.833182156085968,-1.301248550415039,9.592369079589844
1713723966229939018,0.15659387409687042,0.13741911947727203,-0.029827404767274857,-0.9876081943511963,-1.2090718746185303,8.35576343536377
1713723966239939018,0.17789916694164276,0.092678003013134,-0.024501081556081772,-1.5275006294250488,-0.0347159244120121,8.252813339233398
1713723966248939018,0.15020228922367096,-0.006391586735844612,-0.01065264455974102,-1.4676456451416016,1.2737152576446533,8.50061321258545
1713723966258939018,0.034088462591171265,-0.08522115647792816,-0.00532632227987051,-1.258152961730957,1.789665699005127,9.080009460449219
1713723966268939018,-0.10759171098470688,-0.11930961906909943,-0.006391586735844612,-0.4141968786716461,1.6148890256881714,9.86889934539795
1713723966277939018,-0.22583605349063873,-0.09906959533691406,-0.011717909015715122,0.6607996821403503,0.7386112213134766,9.87967300415039
1713723966287939018,-0.2652508318424225,-0.030892668291926384,-0.007456851191818714,1.2713210582733154,-0.5877764821052551,10.079588890075684
1713723966296939018,-0.13528858125209808,-0.013848437927663326,-0.047936901450157166,-0.11372458189725876,-3.464409828186035,9.775525093078613
1713723966306939018,-0.02556634694337845,-0.027696875855326653,-0.002130528911948204,-1.5370774269104004,-4.854243755340576,10.159794807434082
1713723966315939018,0.07776430249214172,-0.03195793181657791,-0.004261057823896408,0.021547814831137657,-2.3092074394226074,12.135010719299316
1713723966325939018,0.092678003013134,0.001065264455974102,-0.03834952041506767,1.577778935432434,-0.6320692300796509,11.899182319641113
1713723966334939018,0.0511326938867569,0.05432848632335663,-0.041545312851667404,1.3251906633377075,-1.0450689792633057,9.660603523254395
1713723966344939018,0.03302319720387459,0.08202536404132843,-0.02876213937997818,0.3543418347835541,-1.0989385843276978,8.933963775634766
1713723966354939018,0.07030745595693588,0.07243797928094864,-0.03621898964047432,-0.811634361743927,-0.8283937573432922,8.631096839904785
1713723966363939018,0.08735168725252151,0.04580637067556381,-0.00532632227987051,-1.2761094570159912,-0.15801730751991272,8.56884765625
1713723966373939018,0.06178533658385277,-0.017044231295585632,-0.027696875855326653,-1.3754688501358032,0.5566518902778625,9.196128845214844
1713723966382939018,-0.020240023732185364,-0.06604639440774918,-0.004261057823896408,-1.161187767982483,0.6392518281936646,9.834183692932129
1713723966393939018,-0.11824434995651245,-0.09800432622432709,-0.019174760207533836,-0.31603461503982544,0.33279404044151306,10.404003143310547
1713723966402939018,-0.17044231295585632,-0.08415588736534119,-0.01065264455974102,0.6404489278793335,-0.44412440061569214,9.860519409179688
1713723966412939018,-0.14487595856189728,-0.04367584362626076,-0.01810949482023716,0.6536170244216919,-1.5634137392044067,9.642646789550781
1713723966421939018,-0.041545312851667404,-0.01065264455974102,-0.03515372797846794,-0.04429272934794426,-2.8383259773254395,9.77791976928711
1713723966430939018,0.027696875855326653,0.022370552644133568,-0.01065264455974102,0.16998831927776337,-2.5929203033447266,10.617087364196777
1713723966440939018,0.06711165606975555,0.029827404767274857,-0.03941478580236435,0.6248866319656372,-1.3922282457351685,11.216835021972656
1713723966450939018,0.023435818031430244,0.026631610468029976,-0.03834952041506767,-0.03950432687997818,-1.0845733880996704,11.051634788513184
1713723966459939018,0.024501081556081772,-0.015978965908288956,-0.03302319720387459,-0.8702923059463501,-1.6280571222305298,10.323797225952148
1713723966469939018,0.029827404767274857,-0.037284255027770996,0.001065264455974102,-0.38067805767059326,-1.546654224395752,9.343372344970703
1713723966479939018,0.08309062570333481,-0.022370552644133568,-0.020240023732185364,0.34835633635520935,-0.7433996200561523,8.704119682312012
1713723966488939018,0.07776430249214172,0.022370552644133568,-0.02130528911948204,0.3208230137825012,-0.14844051003456116,8.542511940002441
1713723966497939018,0.04048004746437073,0.037284255027770996,-0.026631610468029976,-0.010773907415568829,0.4692635238170624,9.419986724853516
1713723966507939018,-0.03195793181657791,0.026631610468029976,-0.026631610468029976,-0.416591078042984,0.5207388401031494,9.979032516479492
1713723966517939018,-0.10439591109752655,-0.003195793367922306,-0.020240023732185364,-0.6009446382522583,0.1364694982767105,10.114304542541504
1713723966526939018,-0.11717908829450607,-0.04580637067556381,-0.013848437927663326,-0.7062894701957703,-0.8224082589149475,9.641449928283691
1713723966536939018,-0.08522115647792816,-0.06924218684434891,-0.001065264455974102,-0.5494692921638489,-1.6855180263519287,9.172186851501465
1713723966545939018,-0.03941478580236435,-0.04580637067556381,-0.004261057823896408,0.24899697303771973,-1.3670891523361206,9.809043884277344
1713723966556939018,-0.017044231295585632,0.002130528911948204,-0.026631610468029976,0.8355763554573059,-1.0690110921859741,10.995370864868164
1713723966564939018,-0.006391586735844612,0.00532632227987051,-0.041545312851667404,0.14844051003456116,-2.1499931812286377,11.66455078125
1713723966574939018,0.014913702383637428,-0.03834952041506767,-0.026631610468029976,-0.8367734551429749,-3.3279402256011963,11.305419921875
1713723966584939018,0.052197955548763275,-0.05006742849946022,0.001065264455974102,0.11133037507534027,-2.5737667083740234,10.51054573059082
1713723966593939018,0.12676647305488586,-0.004261057823896408,-0.024501081556081772,1.381454348564148,-1.2545616626739502,9.08719253540039
1713723966603939018,0.148071750998497,0.08628641813993454,-0.037284255027770996,1.0857704877853394,-0.4106055796146393,8.105569839477539
1713723966612939018,0.13528858125209808,0.11930961906909943,-0.044741105288267136,0.12090718746185303,0.6308721303939819,8.488641738891602
1713723966623939018,0.06711165606975555,0.07989483326673508,-0.037284255027770996,-1.037886381149292,1.256955862045288,9.090784072875977
1713723966632939018,-0.047936901450157166,0.00532632227987051,-0.026631610468029976,-1.6352397203445435,1.256955862045288,9.877279281616211
1713723966641939018,-0.1576591432094574,-0.07030745595693588,-0.014913702383637428,-1.282094955444336,0.6991068720817566,10.065223693847656
1713723966651939018,-0.20772656798362732,-0.10546118021011353,-0.001065264455974102,-0.304063618183136,-0.38546645641326904,9.84615421295166
1713723966660939018,-0.1438107043504715,-0.10333064943552017,-0.017044231295585632,0.010773907415568829,-2.2254104614257812,9.3828763961792
1713723966670939018,-0.06604639440774918,-0.05965480953454971,-0.003195793367922306,0.1867477297782898,-3.1292216777801514,9.84615421295166
1713723966679939018,0.01065264455974102,0.006391586735844612,-0.017044231295585632,1.2473790645599365,-2.1320366859436035,11.322179794311523
1713723966689939018,0.04048004746437073,0.058589544147253036,-0.03941478580236435,1.2749123573303223,-1.7106571197509766,12.046425819396973
1713723966699939018,0.07030745595693588,0.05326322093605995,-0.052197955548763275,-0.2346317619085312,-2.742558002471924,11.282675743103027
1713723966709939018,0.092678003013134,0.029827404767274857,-0.00532632227987051,-0.6165069341659546,-2.6791117191314697,9.850942611694336
1713723966718939018,0.15020228922367096,0.017044231295585632,-0.02556634694337845,0.10534487664699554,-1.1073182821273804,8.809465408325195
1713723966728939018,0.14913702011108398,0.04580637067556381,-0.03621898964047432,0.047884032130241394,0.28131869435310364,8.441954612731934
1713723966737939018,0.11824434995651245,0.03834952041506767,-0.041545312851667404,-0.5566518902778625,1.0833762884140015,8.340201377868652
1713723966747939018,0.027696875855326653,0.003195793367922306,-0.03515372797846794,-1.0342950820922852,1.3850456476211548,8.656235694885254
1713723966756939018,-0.09054747968912125,-0.04048004746437073,-0.03941478580236435,-0.9349357485771179,1.382651448249817,9.639056205749512
1713723966766939018,-0.1896170675754547,-0.06924218684434891,-0.027696875855326653,-0.36990416049957275,0.8487445116043091,10.097545623779297
1713723966775939018,-0.22370553016662598,-0.06604639440774918,-0.01810949482023716,0.22266075015068054,-0.4429273009300232,9.848548889160156
1713723966785939018,-0.1533980816602707,-0.06178533658385277,-0.027696875855326653,-0.06224924325942993,-2.6396074295043945,9.62947940826416
1713723966794939018,-0.06924218684434891,-0.058589544147253036,-0.008522115647792816,-0.7266402244567871,-3.865438461303711,10.793061256408691
1713723966804939018,0.007456851191818714,-0.034088462591171265,-0.00532632227987051,0.416591078042984,-2.7952303886413574,12.267889022827148
1713723966814939018,0.05006742849946022,0.00532632227987051,-0.03621898964047432,1.4269441366195679,-2.011129379272461,12.246341705322266
1713723966823939018,0.08948221057653427,0.03515372797846794,-0.04580637067556381,0.477643221616745,-2.7246015071868896,10.54645824432373
1713723966833939018,0.12463594228029251,0.055393751710653305,-0.015978965908288956,0.061052143573760986,-2.298433542251587,9.028534889221191
1713723966843939018,0.18748654425144196,0.06604639440774918,-0.04048004746437073,-0.033518824726343155,-0.6823474764823914,8.26119327545166
1713723966852939018,0.16831177473068237,0.06817692518234253,-0.03621898964047432,-0.6811503767967224,0.6488286256790161,8.23006820678711
1713723966862939018,0.10120011866092682,0.02130528911948204,-0.03621898964047432,-1.1707645654678345,1.547851324081421,8.809465408325195
1713723966871939018,-0.029827404767274857,-0.04367584362626076,-0.022370552644133568,-1.2342109680175781,1.723825216293335,9.414000511169434
1713723966881939018,-0.16085493564605713,-0.09906959533691406,-0.02556634694337845,-0.6979097723960876,1.2497732639312744,9.882067680358887
1713723966890939018,-0.2364886999130249,-0.10439591109752655,-0.011717909015715122,0.22026655077934265,0.24181437492370605,9.485827445983887
1713723966900939018,-0.22796659171581268,-0.06711165606975555,-0.012783173471689224,0.7026981711387634,-0.970848798751831,9.93833065032959
1713723966909939018,-0.10546118021011353,-0.03621898964047432,-0.03515372797846794,-0.2932896912097931,-3.112462043762207,10.052055358886719
1713723966919939018,-0.022370552644133568,-0.015978965908288956,-0.006391586735844612,-0.4453215003013611,-4.05817174911499,10.709263801574707
1713723966929939018,0.029827404767274857,-0.007456851191818714,-0.022370552644133568,0.9253589510917664,-2.7102363109588623,12.507309913635254
1713723966939939018,0.05006742849946022,-0.004261057823896408,-0.04261057823896408,0.7553706169128418,-2.3798365592956543,12.227188110351562
1713723966948939018,0.0788295716047287,-0.003195793367922306,-0.023435818031430244,-0.08140285313129425,-2.890998601913452,10.378864288330078
1713723966958939018,0.13635385036468506,0.026631610468029976,-0.012783173471689224,0.3100491166114807,-1.742978811264038,9.100360870361328
1713723966967939018,0.21411815285682678,0.07456851005554199,-0.041545312851667404,0.5147533416748047,-0.24420857429504395,7.911639213562012
1713723966976939018,0.20133498311042786,0.08202536404132843,-0.03195793181657791,-0.3842693567276001,0.7266402244567871,7.368155479431152
1713723966986939018,0.11398329585790634,0.03195793181657791,-0.02876213937997818,-1.3395558595657349,1.9548656940460205,8.53293514251709
1713723966996939018,-0.03941478580236435,-0.03941478580236435,-0.02130528911948204,-1.522712230682373,2.390610456466675,9.716867446899414
1713723967005939018,-0.20133498311042786,-0.10013485699892044,-0.011717909015715122,-0.8415618538856506,1.6412252187728882,10.031704902648926
1713723967015939018,-0.29933929443359375,-0.11185276508331299,-0.004261057823896408,0.19871874153614044,0.2992752194404602,9.679757118225098
1713723967024939018,-0.258859246969223,-0.092678003013134,-0.013848437927663326,0.04189852997660637,-1.722628116607666,10.129867553710938
1713723967034939018,-0.10972223430871964,-0.09054747968912125,-0.015978965908288956,-0.7481880187988281,-4.131195068359375,10.386046409606934
1713723967044939018,-0.001065264455974102,-0.052197955548763275,0.013848437927663326,0.6416460275650024,-3.818751573562622,11.194089889526367
1713723967053939018,0.08628641813993454,-0.00532632227987051,-0.034088462591171265,2.1308395862579346,-2.2900538444519043,11.440692901611328
1713723967063939018,0.037284255027770996,0.06924218684434891,-0.037284255027770996,1.602918028831482,-1.7118542194366455,11.307814598083496
1713723967072939018,0.08202536404132843,0.06711165606975555,-0.06072007119655609,-0.14484919607639313,-2.1942858695983887,10.595539093017578
1713723967082939018,0.10120011866092682,0.04261057823896408,-0.007456851191818714,-1.1839326620101929,-2.206256866455078,8.990227699279785
1713723967092939018,0.16937704384326935,0.007456851191818714,-0.02556634694337845,-0.6464344263076782,-0.47405192255973816,8.400056838989258
1713723967102939018,0.14274543523788452,-0.01065264455974102,-0.017044231295585632,-0.3495534360408783,0.99479079246521,8.38688850402832
1713723967111939018,0.07563377171754837,-0.03302319720387459,-0.023435818031430244,-0.4118026793003082,1.6807295083999634,8.71728801727295
1713723967120939018,-0.0511326938867569,-0.037284255027770996,-0.01810949482023716,-0.1999158412218094,1.6316484212875366,9.030928611755371
1713723967130939018,-0.17363810539245605,-0.03941478580236435,-0.026631610468029976,0.1711854189634323,1.237802267074585,9.731232643127441
1713723967140939018,-0.24288028478622437,-0.02130528911948204,-0.017044231295585632,0.35673603415489197,0.24779987335205078,9.707290649414062
1713723967149939018,-0.19707392156124115,-0.02876213937997818,-0.03515372797846794,-0.6643909811973572,-1.9033902883529663,10.109516143798828
1713723967159939018,-0.09161274135112762,-0.08202536404132843,-0.019174760207533836,-1.843535304069519,-4.059369087219238,11.112687110900879
1713723967168939018,-0.013848437927663326,-0.09587380290031433,0.013848437927663326,-0.208295539021492,-3.3877954483032227,12.192471504211426
1713723967178939018,0.049002163112163544,-0.07030745595693588,-0.03302319720387459,1.8818424940109253,-2.1104886531829834,11.548431396484375
1713723967187939018,0.030892668291926384,0.02130528911948204,-0.026631610468029976,2.102108955383301,-1.8818424940109253,9.890446662902832
1713723967197939018,0.07137271761894226,0.08948221057653427,-0.05006742849946022,1.1719616651535034,-1.6950948238372803,9.217676162719727
1713723967206939018,0.11824434995651245,0.11717908829450607,-0.030892668291926384,-0.14006079733371735,-1.2401964664459229,8.669404029846191
1713723967216939018,0.14913702011108398,0.08415588736534119,-0.030892668291926384,-0.9588777422904968,-0.07182604819536209,8.550890922546387
1713723967226939018,0.10333064943552017,0.008522115647792816,-0.020240023732185364,-1.5346832275390625,0.9205705523490906,8.865728378295898
1713723967235939018,-0.00532632227987051,-0.07563377171754837,-0.013848437927663326,-1.4879963397979736,1.3467384576797485,9.676165580749512
1713723967245939018,-0.13102751970291138,-0.12144014239311218,-0.011717909015715122,-0.5327098965644836,0.9804255962371826,10.393229484558105
1713723967255939018,-0.21518342196941376,-0.10759171098470688,-0.019174760207533836,0.6356605291366577,0.013168109580874443,9.999382972717285
1713723967264939018,-0.20985709130764008,-0.052197955548763275,-0.020240023732185364,0.8068459630012512,-1.2114660739898682,10.020931243896484
1713723967273939018,-0.0788295716047287,-0.02876213937997818,-0.04580637067556381,-0.4752490222454071,-3.2848446369171143,9.578003883361816
1713723967283939018,0.001065264455974102,-0.002130528911948204,-0.006391586735844612,-0.35913026332855225,-3.5924994945526123,10.077195167541504
1713723967293939018,0.0649811327457428,0.00532632227987051,-0.03302319720387459,1.0965443849563599,-1.9249380826950073,11.705251693725586
1713723967302939018,0.019174760207533836,0.023435818031430244,-0.03515372797846794,1.0486602783203125,-1.1516109704971313,11.87883186340332
1713723967312939018,0.03834952041506767,0.01065264455974102,-0.041545312851667404,-0.30047231912612915,-1.6041151285171509,9.951498985290527
1713723967322939018,0.05432848632335663,0.002130528911948204,-0.00532632227987051,-0.416591078042984,-1.4915876388549805,8.220491409301758
1713723967332939018,0.1257012039422989,-0.004261057823896408,-0.027696875855326653,0.25019407272338867,-0.3818751573562622,7.892485618591309
1713723967341939018,0.08948221057653427,0.009587380103766918,-0.01810949482023716,-0.038307227194309235,0.6500257253646851,8.701725959777832
1713723967350939018,0.00532632227987051,0.001065264455974102,-0.026631610468029976,-0.31603461503982544,1.2461819648742676,10.33098030090332
1713723967360939018,-0.13315805792808533,-0.01810949482023716,-0.02130528911948204,-0.29448679089546204,0.6189011335372925,11.018115997314453
1713723967370939018,-0.21944446861743927,-0.049002163112163544,-0.023435818031430244,-0.4189852774143219,-0.7972691655158997,12.054805755615234
1713723967379939018,-0.10759171098470688,-0.10759171098470688,-0.024501081556081772,-1.5945383310317993,-3.6739025115966797,9.53969669342041
1713723967389939018,-0.011717909015715122,-0.08522115647792816,0.03302319720387459,-0.23942016065120697,-3.816357374191284,8.08043098449707
1713723967399939018,0.15872439742088318,-0.022370552644133568,-0.02876213937997818,2.0697872638702393,-1.5310919284820557,8.775946617126465
1713723967408939018,0.10439591109752655,0.08096009492874146,-0.012783173471689224,1.7764976024627686,-0.05985504016280174,10.442310333251953
1713723967417939018,0.01065264455974102,0.11717908829450607,-0.04367584362626076,0.7841010689735413,0.6452373266220093,12.24275016784668
1713723967427939018,-0.09054747968912125,0.07669904083013535,-0.02876213937997818,-0.7912836670875549,-0.395043283700943,11.64419937133789
1713723967436939018,-0.04687163606286049,-0.058589544147253036,-0.024501081556081772,-2.540247917175293,-2.6156651973724365,9.160215377807617
1713723967446939018,0.004261057823896408,-0.11398329585790634,0.023435818031430244,-1.2701239585876465,-2.3271639347076416,7.700949668884277
1713723967456939018,0.11930961906909943,-0.09906959533691406,-0.02130528911948204,1.4413094520568848,-0.4620809257030487,8.197746276855469
1713723967465939018,0.07030745595693588,-0.01065264455974102,-0.024501081556081772,1.964442491531372,0.264559268951416,9.155426979064941
1713723967475939018,-0.03515372797846794,0.06924218684434891,-0.041545312851667404,1.3982137441635132,0.93254154920578,11.524489402770996
1713723967485939018,-0.15126754343509674,0.10333064943552017,-0.04580637067556381,0.295683890581131,0.06823474913835526,12.06198787689209
1713723967494939018,-0.09906959533691406,0.003195793367922306,-0.052197955548763275,-2.185906171798706,-3.118447780609131,10.077195167541504
1713723967504939018,-0.02130528911948204,-0.07669904083013535,0.02130528911948204,-2.691082715988159,-4.082113742828369,7.995436668395996
1713723967513939018,0.148071750998497,-0.092678003013134,0.004261057823896408,0.011971008032560349,-1.092953085899353,8.269572257995605
1713723967523939018,0.12676647305488586,-0.029827404767274857,-0.007456851191818714,1.5670050382614136,1.1731587648391724,10.223240852355957
1713723967532939018,0.03834952041506767,0.044741105288267136,-0.02876213937997818,1.4532804489135742,1.2401964664459229,11.153388023376465
1713723967542939018,-0.13209278881549835,0.08628641813993454,-0.020240023732185364,0.7529764175415039,0.2346317619085312,11.00015926361084
1713723967551939018,-0.16298545897006989,0.012783173471689224,-0.05432848632335663,-1.3706804513931274,-1.8124107122421265,10.862492561340332
1713723967561939018,-0.049002163112163544,-0.10439591109752655,0.001065264455974102,-2.522291421890259,-4.037821292877197,8.178592681884766
1713723967570939018,0.08309062570333481,-0.1203748807311058,0.01810949482023716,0.16998831927776337,-2.3068132400512695,8.475473403930664
1713723967580939018,0.17896442115306854,-0.06924218684434891,-0.037284255027770996,2.05781626701355,-0.040701426565647125,9.931148529052734
1713723967590939018,0.10120011866092682,0.02556634694337845,-0.030892668291926384,1.7824831008911133,0.09457096457481384,9.908403396606445
1713723967599939018,-0.04580637067556381,0.09693906456232071,-0.03515372797846794,1.1971008777618408,0.2885012924671173,11.560402870178223
1713723967609939018,-0.16618125140666962,0.12357067316770554,-0.02556634694337845,0.15682020783424377,-0.32441431283950806,11.201272010803223
1713723967619939018,-0.1065264418721199,0.034088462591171265,-0.02876213937997818,-1.8974047899246216,-2.913743495941162,8.796297073364258
1713723967629939018,-0.011717909015715122,-0.04367584362626076,0.019174760207533836,-2.7485435009002686,-3.671508312225342,7.790732383728027
1713723967638939018,0.14594122767448425,-0.06924218684434891,0.022370552644133568,-0.5722141861915588,-0.7026981711387634,9.11352825164795
1713723967647939018,0.1203748807311058,-0.044741105288267136,0.0,1.2976572513580322,1.337161660194397,10.844536781311035
1713723967658066022,0.01810949482023716,0.017044231295585632,-0.011717909015715122,1.5203180313110352,0.9181763529777527,11.106701850891113
1713723967667066022,-0.13848437368869781,0.06817692518234253,-0.012783173471689224,1.094150185585022,-0.03950432687997818,10.820594787597656
1713723967677066022,-0.13848437368869781,0.03621898964047432,-0.04261057823896408,-0.7086836695671082,-1.7693150043487549,10.183736801147461
1713723967686066022,-0.023435818031430244,-0.04580637067556381,0.001065264455974102,-1.91057288646698,-3.685873508453369,7.844601631164551
1713723967696066022,0.10546118021011353,-0.05965480953454971,0.011717909015715122,0.03711012750864029,-2.006340980529785,8.482656478881836
1713723967706066022,0.16405072808265686,-0.034088462591171265,-0.022370552644133568,1.4616601467132568,0.24181437492370605,10.091560363769531
1713723967716066022,0.05965480953454971,0.02876213937997818,-0.023435818031430244,1.1563993692398071,0.5051765441894531,10.607510566711426
1713723967725066022,-0.10546118021011353,0.07989483326673508,-0.02876213937997818,0.7769184112548828,0.3172317147254944,11.739968299865723
1713723967735066022,-0.19174760580062866,0.06391586363315582,-0.041545312851667404,-0.7541735172271729,-1.0330979824066162,12.115857124328613
1713723967744066022,-0.05965480953454971,-0.05432848632335663,-0.023435818031430244,-2.7916390895843506,-4.214992046356201,8.89685344696045
1713723967753066022,0.04687163606286049,-0.07989483326673508,0.041545312851667404,-1.1623848676681519,-3.5051112174987793,7.796717643737793
1713723967763066022,0.2183792144060135,-0.07563377171754837,-0.022370552644133568,1.4293383359909058,-0.6584054827690125,8.616731643676758
1713723967773066022,0.11504855751991272,0.02130528911948204,0.004261057823896408,1.6508020162582397,0.4058171808719635,9.925163269042969
1713723967783066022,-0.012783173471689224,0.08522115647792816,-0.04367584362626076,1.3287819623947144,1.2186486721038818,12.058396339416504
1713723967793066022,-0.15552860498428345,0.10546118021011353,-0.020240023732185364,0.40940847992897034,0.44412440061569214,10.528501510620117
1713723967802066022,-0.12463594228029251,0.004261057823896408,-0.04687163606286049,-1.742978811264038,-2.036268472671509,8.96628475189209
1713723967811066022,-0.02876213937997818,-0.08522115647792816,0.002130528911948204,-2.335543632507324,-3.3291373252868652,7.832630634307861
1713723967821066022,0.12676647305488586,-0.1065264418721199,0.004261057823896408,0.11851298063993454,-0.9828197956085205,8.554482460021973
1713723967830066022,0.12676647305488586,-0.05752427875995636,-0.02876213937997818,1.789665699005127,1.01753568649292,10.487800598144531
1713723967840066022,0.029827404767274857,0.034088462591171265,-0.03834952041506767,1.8471266031265259,0.7972691655158997,11.589133262634277
1713723967849066022,-0.13848437368869781,0.1022653877735138,-0.03621898964047432,1.2186486721038818,-0.20709843933582306,11.684901237487793
1713723967859066022,-0.14913702011108398,0.0511326938867569,-0.0649811327457428,-1.4113818407058716,-2.6850972175598145,11.03367805480957
1713723967869066022,-0.001065264455974102,-0.06072007119655609,-0.004261057823896408,-3.3291373252868652,-5.097255229949951,8.233659744262695
1713723967878066022,0.15233281254768372,-0.08735168725252151,0.02130528911948204,-0.45848962664604187,-2.3295581340789795,8.56645393371582
1713723967888066022,0.2599245309829712,-0.06924218684434891,-0.03834952041506767,1.8052279949188232,0.6308721303939819,9.601945877075195
1713723967897066022,0.148071750998497,0.008522115647792816,-0.019174760207533836,1.3084311485290527,0.8487445116043091,9.714472770690918
1713723967907066022,-0.022370552644133568,0.07030745595693588,-0.03515372797846794,0.8559271097183228,0.9911994934082031,11.389217376708984
1713723967916066022,-0.1906823366880417,0.08522115647792816,-0.026631610468029976,0.3232172131538391,0.29448679089546204,10.556035041809082
1713723967926066022,-0.21198762953281403,0.037284255027770996,-0.037284255027770996,-1.4975731372833252,-1.3539210557937622,10.031704902648926
1713723967936066022,-0.06391586363315582,-0.08096009492874146,-0.03515372797846794,-2.5115175247192383,-3.6619315147399902,7.803900241851807
1713723967946066022,0.07563377171754837,-0.10013485699892044,0.03621898964047432,-0.05746084079146385,-2.3127987384796143,8.432377815246582
1713723967955066022,0.16405072808265686,-0.07563377171754837,-0.047936901450157166,1.722628116607666,0.06584054231643677,10.228029251098633
1713723967964066022,0.05965480953454971,0.023435818031430244,-0.01065264455974102,1.6388310194015503,0.11252747476100922,10.797849655151367
1713723967974066022,-0.08735168725252151,0.09800432622432709,-0.03302319720387459,1.3682862520217896,0.0,12.284648895263672
1713723967984066022,-0.148071750998497,0.09906959533691406,-0.03621898964047432,-0.7589619159698486,-1.4101847410202026,12.234370231628418
1713723967993066022,0.006391586735844612,-0.03302319720387459,-0.04048004746437073,-3.2800562381744385,-4.922478675842285,9.555258750915527
1713723968003066022,0.1161138266324997,-0.09054747968912125,0.03834952041506767,-1.6328455209732056,-4.1826701164245605,8.537723541259766
1713723968012066022,0.2886866629123688,-0.14061491191387177,-0.041545312851667404,0.9313444495201111,-0.7601590156555176,8.856151580810547
1713723968022066022,0.20772656798362732,-0.06285060197114944,-0.023435818031430244,1.3239935636520386,0.6380547285079956,8.597578048706055
1713723968032066022,0.10759171098470688,0.007456851191818714,-0.044741105288267136,1.3096283674240112,1.9153612852096558,9.434351921081543
1713723968041066022,-0.05432848632335663,0.06178533658385277,-0.017044231295585632,0.8224082589149475,2.1727380752563477,9.569623947143555
1713723968051066022,-0.17363810539245605,0.07989483326673508,-0.022370552644133568,0.3519476354122162,1.665167212486267,9.41759204864502
1713723968060066022,-0.2460760921239853,0.09161274135112762,0.002130528911948204,0.08499415963888168,0.6548141837120056,8.980650901794434
1713723968070066022,-0.17363810539245605,0.006391586735844612,-0.04048004746437073,-1.4867992401123047,-1.844732403755188,9.182960510253906
1713723968079066022,-0.092678003013134,-0.07669904083013535,0.02556634694337845,-2.0901379585266113,-3.558980703353882,9.816226959228516
1713723968090066022,-0.007456851191818714,-0.10120011866092682,0.023435818031430244,0.16998831927776337,-2.1487960815429688,11.808202743530273
1713723968099066022,-0.017044231295585632,-0.037284255027770996,-0.001065264455974102,1.7202339172363281,-1.4137760400772095,12.618639945983887
1713723968109066022,0.01810949482023716,0.022370552644133568,-0.03302319720387459,0.8248024582862854,-3.1292216777801514,11.796231269836426
1713723968118066022,0.11504855751991272,0.008522115647792816,-0.02876213937997818,-1.0283095836639404,-4.830301761627197,9.97184944152832
1713723968127066022,0.20985709130764008,-0.001065264455974102,0.011717909015715122,-0.5015852451324463,-2.628833532333374,9.566032409667969
1713723968137066022,0.3099919557571411,-0.007456851191818714,-0.03621898964047432,0.834379255771637,0.19153612852096558,8.643068313598633
1713723968146066022,0.24181503057479858,0.037284255027770996,-0.02130528911948204,0.7625532150268555,1.1109095811843872,7.402871608734131
1713723968156066022,0.10120011866092682,0.049002163112163544,-0.04048004746437073,0.45848962664604187,2.497152328491211,8.615534782409668
1713723968166066022,-0.06817692518234253,0.037284255027770996,-0.02130528911948204,-0.06584054231643677,2.937685489654541,9.174580574035645
1713723968176066022,-0.2322276532649994,0.013848437927663326,-0.020240023732185364,-0.37469255924224854,2.0590133666992188,9.197325706481934
1713723968185066022,-0.3206445872783661,-0.014913702383637428,-0.014913702383637428,-0.37229835987091064,0.5219359397888184,9.345766067504883
1713723968194066022,-0.2460760921239853,-0.08948221057653427,-0.019174760207533836,-1.070208191871643,-2.3786394596099854,9.552865028381348
1713723968204066022,-0.15126754343509674,-0.13848437368869781,0.019174760207533836,-1.094150185585022,-4.4077253341674805,11.070788383483887
1713723968214066022,0.01065264455974102,-0.06178533658385277,0.03941478580236435,1.6053122282028198,-3.688267707824707,12.337321281433105
1713723968223066022,0.037284255027770996,0.05006742849946022,-0.05432848632335663,2.7281928062438965,-2.5234885215759277,13.12621021270752
1713723968233066022,0.14700649678707123,0.10013485699892044,-0.052197955548763275,0.06344634294509888,-3.442862033843994,11.674127578735352
1713723968243066022,0.1906823366880417,0.08096009492874146,-0.022370552644133568,-1.1971008777618408,-3.4763808250427246,8.918400764465332
1713723968252066022,0.28016453981399536,0.020240023732185364,-0.011717909015715122,-0.36990416049957275,-0.9636661410331726,7.866149425506592
1713723968262066022,0.2364886999130249,-0.00532632227987051,-0.027696875855326653,-0.14245499670505524,1.3862427473068237,7.929595947265625
1713723968271066022,0.14913702011108398,-0.009587380103766918,-0.024501081556081772,-0.10534487664699554,2.6791117191314697,8.127117156982422
1713723968281066022,-0.022370552644133568,-0.009587380103766918,-0.01810949482023716,0.15921440720558167,2.8359317779541016,8.513781547546387
1713723968290066022,-0.2034655064344406,-0.004261057823896408,-0.029827404767274857,0.38307225704193115,2.3044190406799316,9.800664901733398
1713723968300066022,-0.32597091794013977,0.011717909015715122,-0.019174760207533836,0.40462008118629456,0.9493009448051453,10.046070098876953
1713723968310066022,-0.2780340313911438,-0.04048004746437073,-0.047936901450157166,-1.259350061416626,-1.9728221893310547,10.280701637268066
1713723968319066022,-0.13741911947727203,-0.12676647305488586,0.003195793367922306,-1.8770540952682495,-4.569334030151367,9.645041465759277
1713723968329066022,0.002130528911948204,-0.09587380290031433,0.022370552644133568,1.2461819648742676,-3.181894063949585,10.741585731506348
1713723968338066022,0.08309062570333481,0.007456851191818714,-0.03195793181657791,2.7533318996429443,-1.5179238319396973,11.903970718383789
1713723968349066022,0.03195793181657791,0.1438107043504715,-0.03195793181657791,1.7597382068634033,-1.725022315979004,11.241973876953125
1713723968357066022,0.06285060197114944,0.14594122767448425,-0.05752427875995636,-0.8631097078323364,-2.8993782997131348,11.281477928161621
1713723968367066022,0.13102751970291138,0.04580637067556381,-0.007456851191818714,-2.9017724990844727,-3.5242648124694824,9.309853553771973
1713723968377066022,0.2034655064344406,-0.03195793181657791,0.037284255027770996,-1.6136919260025024,-0.7876923680305481,9.006986618041992
1713723968386066022,0.22583605349063873,-0.07563377171754837,0.001065264455974102,-0.16759411990642548,1.4281412363052368,8.768763542175293
1713723968396066022,0.13102751970291138,-0.03834952041506767,0.024501081556081772,0.34356793761253357,1.6747440099716187,7.781155586242676
1713723968405066022,-0.012783173471689224,-0.00532632227987051,0.006391586735844612,0.4106055796146393,1.9823989868164062,9.193734169006348
1713723968415066022,-0.13528858125209808,0.03195793181657791,0.037284255027770996,0.25498247146606445,1.5430629253387451,9.585186004638672
1713723968425066022,-0.2460760921239853,0.05645901337265968,0.03515372797846794,0.12330138683319092,0.5482721924781799,9.521739959716797
1713723968434066022,-0.260989785194397,0.047936901450157166,0.02130528911948204,-0.6464344263076782,-0.750582218170166,10.793061256408691
1713723968443066022,-0.13635385036468506,-0.05645901337265968,0.02556634694337845,-2.5893290042877197,-3.6332011222839355,9.764751434326172
1713723968453066022,-0.07776430249214172,-0.10865697264671326,0.09374327212572098,-1.2521674633026123,-3.7457284927368164,10.418368339538574
1713723968463066022,0.029827404767274857,-0.08735168725252151,0.052197955548763275,1.8411411046981812,-1.9405004978179932,11.874043464660645
1713723968472066022,-0.024501081556081772,0.029827404767274857,0.0511326938867569,2.298433542251587,-1.7932569980621338,11.836933135986328
1713723968483066022,0.07456851005554199,0.06285060197114944,-0.004261057823896408,0.2106897532939911,-3.1316158771514893,11.14500904083252
1713723968492066022,0.14061491191387177,0.05006742849946022,0.055393751710653305,-1.3922282457351685,-3.640383720397949,8.84178638458252
1713723968501066022,0.260989785194397,0.007456851191818714,0.049002163112163544,-0.24779987335205078,-0.9828197956085205,8.344989776611328
1713723968510066022,0.23755396902561188,0.013848437927663326,0.030892668291926384,0.3447650372982025,1.544260025024414,8.69095230102539
1713723968520066022,0.14594122767448425,0.026631610468029976,0.03302319720387459,0.033518824726343155,2.4899697303771973,8.559270858764648
1713723968530066022,-0.03621898964047432,0.030892668291926384,0.041545312851667404,-0.26815059781074524,2.4899697303771973,9.062053680419922
1713723968539066022,-0.1992044448852539,0.020240023732185364,0.04048004746437073,-0.43933600187301636,1.9165583848953247,9.957484245300293
1713723968549066022,-0.29507824778556824,0.0,0.058589544147253036,-0.4908113479614258,0.30286651849746704,9.530119895935059
1713723968559066022,-0.22477079927921295,-0.08735168725252151,0.041545312851667404,-1.315613865852356,-2.5917232036590576,9.024943351745605
1713723968569066022,-0.14274543523788452,-0.12889699637889862,0.10333064943552017,-1.0630255937576294,-3.7816414833068848,9.38167953491211
1713723968578066022,-0.023435818031430244,-0.09054747968912125,0.08415588736534119,1.3982137441635132,-1.9800047874450684,11.306617736816406
1713723968587066022,-0.004261057823896408,0.03515372797846794,0.07030745595693588,2.517503023147583,-1.1049240827560425,12.583924293518066
1713723968597066022,0.013848437927663326,0.12463594228029251,0.030892668291926384,0.8595184087753296,-2.4241292476654053,12.652158737182617
1713723968607066022,0.11185276508331299,0.07350324839353561,0.03621898964047432,-2.1799206733703613,-4.887762546539307,10.584765434265137
1713723968616066022,0.17470337450504303,0.002130528911948204,0.09374327212572098,-1.9369091987609863,-3.6954503059387207,9.419986724853516
1713723968626066022,0.28975191712379456,-0.049002163112163544,0.06924218684434891,0.06584054231643677,-0.48722004890441895,8.328230857849121
1713723968636066022,0.20559602975845337,-0.013848437927663326,0.07563377171754837,0.18794482946395874,1.2976572513580322,7.681796073913574
1713723968645066022,0.10333064943552017,0.02876213937997818,0.06604639440774918,0.028730420395731926,2.8646621704101562,8.604761123657227
1713723968654066022,-0.06178533658385277,0.05326322093605995,0.1022653877735138,-0.3543418347835541,3.0609867572784424,8.819042205810547
1713723968664066022,-0.22050973773002625,0.04367584362626076,0.10439591109752655,-0.7134720683097839,2.336740732192993,9.691728591918945
1713723968673066022,-0.3195793330669403,0.023435818031430244,0.1438107043504715,-0.9085995554924011,0.8212111592292786,10.590750694274902
1713723968683066022,-0.22157500684261322,-0.08522115647792816,0.11398329585790634,-2.2457611560821533,-2.7904419898986816,9.732429504394531
1713723968693066022,-0.1395496428012848,-0.1438107043504715,0.1992044448852539,-1.932120680809021,-4.406527996063232,8.591592788696289
1713723968702066022,0.002130528911948204,-0.12463594228029251,0.16085493564605713,1.236605167388916,-2.1547815799713135,10.190918922424316
1713723968712066022,-0.003195793367922306,0.00532632227987051,0.15872439742088318,2.699462413787842,-0.7613561153411865,12.168529510498047
1713723968722066022,-0.027696875855326653,0.12676647305488586,0.11291802674531937,2.075772762298584,-1.423352837562561,12.823344230651855
1713723968731066022,0.04048004746437073,0.1161138266324997,0.10972223430871964,-1.1228805780410767,-4.267664432525635,11.27190113067627
1713723968741066022,0.11291802674531937,0.01810949482023716,0.14913702011108398,-3.0526070594787598,-4.98592472076416,8.961496353149414
1713723968750066022,0.22903186082839966,-0.04048004746437073,0.18322548270225525,-1.1875240802764893,-1.2246341705322266,8.754398345947266
1713723968760066022,0.23542344570159912,-0.052197955548763275,0.1395496428012848,0.3998316824436188,1.6879122257232666,8.973467826843262
1713723968769066022,0.16298545897006989,-0.006391586735844612,0.1438107043504715,0.7709329128265381,2.0231003761291504,7.905653953552246
1713723968779066022,-0.002130528911948204,0.023435818031430244,0.14168016612529755,0.4010287821292877,2.100911855697632,8.847772598266602
1713723968788066022,-0.148071750998497,0.02876213937997818,0.14487595856189728,-0.07541735470294952,1.6627730131149292,9.90481185913086
1713723968799066022,-0.2865561246871948,0.03621898964047432,0.18216021358966827,-0.11252747476100922,0.4752490222454071,10.11909294128418
1713723968808066022,-0.2886866629123688,0.011717909015715122,0.13741911947727203,-0.9277531504631042,-1.3898340463638306,11.00015926361084
1713723968817066022,-0.13528858125209808,-0.08948221057653427,0.16618125140666962,-2.316390037536621,-4.566939830780029,9.045293807983398
1713723968827066022,-0.024501081556081772,-0.10546118021011353,0.21624867618083954,-0.24061726033687592,-3.7169981002807617,9.400833129882812
1713723968837066022,0.13209278881549835,-0.0511326938867569,0.15446333587169647,2.206256866455078,-1.1432312726974487,10.163386344909668
1713723968846066022,0.0511326938867569,0.08096009492874146,0.1672465205192566,2.1104886531829834,-0.6631938815116882,10.611102104187012
1713723968856066022,-0.052197955548763275,0.1715075671672821,0.13315805792808533,1.2665326595306396,-0.10295066982507706,12.58272647857666
1713723968865066022,-0.05006742849946022,0.09054747968912125,0.11930961906909943,-1.9357120990753174,-2.336740732192993,11.651382446289062
1713723968875066022,0.03195793181657791,-0.058589544147253036,0.17789916694164276,-3.91092848777771,-4.64594841003418,9.216479301452637
1713723968885066022,0.14594122767448425,-0.11078750342130661,0.18429075181484222,-1.0043675899505615,-1.946485996246338,8.877699851989746
1713723968894066022,0.23968449234962463,-0.10759171098470688,0.15020228922367096,1.4963760375976562,0.729034423828125,8.670600891113281
1713723968904066022,0.18216021358966827,-0.014913702383637428,0.14168016612529755,1.1312602758407593,0.9876081943511963,7.602787494659424
1713723968913066022,0.06924218684434891,0.055393751710653305,0.16298545897006989,0.5506663918495178,1.845929503440857,8.987833023071289
1713723968923066022,-0.09374327212572098,0.07563377171754837,0.15659387409687042,0.011971008032560349,2.0374655723571777,10.232817649841309
1713723968932066022,-0.2631203234195709,0.07137271761894226,0.18748654425144196,-0.23582886159420013,1.1719616651535034,10.411186218261719
1713723968942066022,-0.3440804183483124,0.034088462591171265,0.16405072808265686,-0.5386953949928284,-0.6045359373092651,11.434706687927246
1713723968952066022,-0.17470337450504303,-0.10120011866092682,0.15872439742088318,-2.823960781097412,-4.757278919219971,9.709684371948242
1713723968961066022,-0.05752427875995636,-0.14061491191387177,0.24394555389881134,-1.6962919235229492,-5.125985622406006,8.49941635131836
1713723968971066022,0.13315805792808533,-0.1203748807311058,0.16405072808265686,1.867477297782898,-1.8076221942901611,9.916783332824707
1713723968980066022,0.07243797928094864,0.012783173471689224,0.1896170675754547,2.52109432220459,-0.28730419278144836,11.12106704711914
1713723968990066022,0.008522115647792816,0.12676647305488586,0.12783172726631165,2.055422067642212,0.30047231912612915,11.565191268920898
1713723968999066022,-0.06178533658385277,0.185356006026268,0.1533980816602707,0.5973533391952515,-0.5219359397888184,10.78587818145752
1713723969009066022,-0.006391586735844612,0.06391586363315582,0.11504855751991272,-2.3271639347076416,-2.7317841053009033,8.89565658569336
1713723969019066022,0.03302319720387459,-0.020240023732185364,0.1949433982372284,-2.718616008758545,-2.7952303886413574,8.401253700256348
1713723969028066022,0.12250541150569916,-0.07776430249214172,0.1672465205192566,-0.456095427274704,-0.49799394607543945,9.305065155029297
1713723969038066022,0.04367584362626076,-0.05752427875995636,0.1715075671672821,0.5434837937355042,0.9002197980880737,9.834183692932129
1713723969047066022,-0.03195793181657791,-0.01810949482023716,0.15552860498428345,0.9516951441764832,1.116895079612732,10.350133895874023
1713723969057066022,-0.12783172726631165,0.034088462591171265,0.14594122767448425,0.8930371999740601,0.23702596127986908,9.624691009521484
1713723969066066022,-0.15233281254768372,0.041545312851667404,0.13209278881549835,-0.10534487664699554,-1.0007762908935547,10.467449188232422
1713723969076066022,-0.05752427875995636,-0.02876213937997818,0.12250541150569916,-1.6484078168869019,-3.1459810733795166,9.496601104736328
1713723969086066022,0.0,-0.06285060197114944,0.17363810539245605,-0.5351040959358215,-2.765302896499634,9.363722801208496
1713723969095066022,0.09480853378772736,-0.0649811327457428,0.11504855751991272,1.4293383359909058,-0.894234299659729,9.373299598693848
1713723969105066022,0.030892668291926384,0.007456851191818714,0.12250541150569916,1.7070658206939697,-0.15801730751991272,9.546878814697266
1713723969114066022,-0.05432848632335663,0.06711165606975555,0.10120011866092682,1.4425065517425537,0.29807811975479126,11.340136528015137
1713723969125066022,-0.1395496428012848,0.08309062570333481,0.0884169489145279,0.629675030708313,-0.8355763554573059,12.259510040283203
1713723969133066022,-0.055393751710653305,-0.034088462591171265,0.07030745595693588,-2.1763293743133545,-4.346673011779785,10.896011352539062
1713723969143066022,0.006391586735844612,-0.12144014239311218,0.1299622654914856,-1.7920598983764648,-4.856637954711914,8.948328971862793
1713723969153066022,0.18642127513885498,-0.1203748807311058,0.0788295716047287,1.6340426206588745,-1.643619418144226,8.544905662536621
1713723969162066022,0.19174760580062866,-0.009587380103766918,0.0511326938867569,2.2445640563964844,0.5554547905921936,8.74960994720459
1713723969172066022,0.148071750998497,0.07776430249214172,0.013848437927663326,1.6699556112289429,1.578976035118103,9.414000511169434
1713723969181066022,0.011717909015715122,0.1161138266324997,0.024501081556081772,0.7134720683097839,1.6184803247451782,9.798270225524902
1713723969191066022,-0.1438107043504715,0.0884169489145279,0.01065264455974102,-0.06344634294509888,1.3563152551651,10.539276123046875
1713723969200066022,-0.22903186082839966,0.03621898964047432,0.02556634694337845,-0.50876784324646,0.02513911761343479,10.247182846069336
1713723969210066022,-0.16831177473068237,-0.07456851005554199,0.011717909015715122,-1.7154455184936523,-2.802412986755371,8.274360656738281
1713723969219066022,-0.09587380290031433,-0.11078750342130661,0.07030745595693588,-0.9660603404045105,-3.1220390796661377,8.361749649047852
1713723969229066022,0.02876213937997818,-0.07456851005554199,0.037284255027770996,1.334767460823059,-1.194706678390503,9.75278091430664
1713723969239066022,0.0,0.03941478580236435,0.022370552644133568,1.9273322820663452,-0.41539397835731506,11.14620590209961
1713723969249066022,-0.05752427875995636,0.11717908829450607,-0.00532632227987051,1.4772224426269531,-0.8427590131759644,13.208810806274414
1713723969258066022,-0.02130528911948204,0.037284255027770996,-0.03302319720387459,-1.499967336654663,-3.8570587635040283,12.014103889465332
1713723969268066022,0.029827404767274857,-0.06924218684434891,0.03621898964047432,-2.5989058017730713,-5.037400245666504,9.29189682006836
1713723969277066022,0.18748654425144196,-0.08628641813993454,0.02556634694337845,0.5135562419891357,-1.7537527084350586,8.519766807556152
1713723969287066022,0.2364886999130249,-0.004261057823896408,-0.01065264455974102,2.0183119773864746,0.9205705523490906,8.310274124145508
1713723969296066022,0.1992044448852539,0.07563377171754837,-0.03302319720387459,1.3335703611373901,1.6543933153152466,8.042123794555664
1713723969306066022,0.04580637067556381,0.10546118021011353,-0.01810949482023716,0.35314473509788513,2.163161277770996,9.659406661987305
1713723969316066022,-0.1438107043504715,0.06711165606975555,-0.04580637067556381,-0.3363853394985199,1.8088194131851196,10.915164947509766
1713723969325066022,-0.3025350868701935,0.01810949482023716,-0.011717909015715122,-0.3890577554702759,0.33279404044151306,10.359710693359375
1713723969335066022,-0.25779399275779724,-0.08202536404132843,-0.06072007119655609,-1.3192051649093628,-2.8107926845550537,9.313444137573242
1713723969344066022,-0.1203748807311058,-0.13848437368869781,0.01065264455974102,-1.359906554222107,-4.921281337738037,8.96269416809082
1713723969354066022,0.0788295716047287,-0.06391586363315582,0.007456851191818714,1.4879963397979736,-2.9664158821105957,9.59715747833252
1713723969363066022,0.15978966653347015,0.05645901337265968,-0.07030745595693588,2.8790276050567627,-0.6859387755393982,10.162188529968262
1713723969373066022,0.08948221057653427,0.14913702011108398,-0.05326322093605995,1.6555904150009155,0.09696516394615173,11.444283485412598
1713723969383066022,-0.03834952041506767,0.1619201898574829,-0.08096009492874146,-0.08858545869588852,-0.08259996026754379,12.008118629455566
1713723969392066022,-0.06604639440774918,0.034088462591171265,-0.08309062570333481,-2.52109432220459,-2.208651065826416,10.619481086730957
1713723969402066022,-0.023435818031430244,-0.0884169489145279,-0.014913702383637428,-2.6623523235321045,-3.5637691020965576,8.892065048217773
1713723969412066022,0.07989483326673508,-0.1022653877735138,-0.019174760207533836,0.05746084079146385,-1.5502455234527588,9.002198219299316
1713723969421066022,0.14168016612529755,-0.03302319720387459,-0.049002163112163544,1.8052279949188232,0.17836801707744598,9.191340446472168
1713723969430066022,0.1257012039422989,0.05965480953454971,-0.05752427875995636,1.787271499633789,0.2669534981250763,8.31865406036377
1713723969440066022,0.02556634694337845,0.12144014239311218,-0.06072007119655609,0.8152256608009338,0.7924807667732239,9.494206428527832
1713723969450066022,-0.08415588736534119,0.1161138266324997,-0.08309062570333481,-0.4752490222454071,0.8930371999740601,10.559626579284668
1713723969459066022,-0.15872439742088318,0.04261057823896408,-0.06072007119655609,-1.9381062984466553,-0.3471592366695404,10.843338966369629
1713723969469066022,-0.11291802674531937,-0.0884169489145279,-0.0511326938867569,-2.847902774810791,-2.5665841102600098,9.710882186889648
1713723969478066022,-0.06391586363315582,-0.12889699637889862,0.003195793367922306,-0.8463503122329712,-2.5462334156036377,9.211690902709961
1713723969488066022,0.03195793181657791,-0.09587380290031433,-0.05006742849946022,1.6208745241165161,-1.1671732664108276,9.57201862335205
1713723969498066022,-0.001065264455974102,0.011717909015715122,-0.0511326938867569,2.05781626701355,-0.8762778043746948,10.1753568649292
1713723969508066022,-0.0511326938867569,0.09054747968912125,-0.07669904083013535,1.6148890256881714,-0.8738836050033569,12.036849021911621
1713723969517066022,-0.006391586735844612,0.06285060197114944,-0.09906959533691406,-0.6356605291366577,-2.9161376953125,11.444283485412598
1713723969526066022,0.04367584362626076,-0.011717909015715122,-0.03302319720387459,-1.932120680809021,-4.151545524597168,9.66539192199707
1713723969536066022,0.148071750998497,-0.034088462591171265,-0.03302319720387459,-0.09457096457481384,-1.7393875122070312,9.443928718566895
1713723969545066022,0.20666129887104034,0.022370552644133568,-0.05752427875995636,1.3467384576797485,0.42856210470199585,9.015366554260254
1713723969555066022,0.1768338978290558,0.08309062570333481,-0.07456851005554199,0.973242998123169,0.8236053586006165,7.794323444366455
1713723969565066022,0.058589544147253036,0.10439591109752655,-0.06285060197114944,0.015562310814857483,1.437718152999878,8.74721622467041
1713723969574066022,-0.07563377171754837,0.06817692518234253,-0.08202536404132843,-0.8080430626869202,1.6172832250595093,10.023324966430664
1713723969584066022,-0.19707392156124115,0.011717909015715122,-0.05006742849946022,-1.013944387435913,0.6344634294509888,9.998186111450195
1713723969593066022,-0.2087918221950531,-0.06072007119655609,-0.058589544147253036,-1.3239935636520386,-1.3874398469924927,10.123881340026855
1713723969603066022,-0.11824434995651245,-0.11185276508331299,-0.034088462591171265,-1.4173673391342163,-3.354276418685913,9.807847023010254
1713723969613066022,-0.019174760207533836,-0.07243797928094864,-0.024501081556081772,0.5315127968788147,-2.625242233276367,10.360907554626465
1713723969622066022,0.07350324839353561,0.001065264455974102,-0.08202536404132843,1.9847931861877441,-1.4113818407058716,10.426748275756836
1713723969632066022,0.034088462591171265,0.07989483326673508,-0.08096009492874146,1.4664485454559326,-1.258152961730957,10.358513832092285
