t,gx,gy,gz,ax,ay,az
1713723114270776979,-0.019174760207533836,0.009587380103766918,-0.09054747968912125,0.7350199222564697,1.5526397228240967,10.502165794372559
1713723114279776979,-0.15659387409687042,0.02876213937997818,-0.08202536404132843,0.5207388401031494,1.0091559886932373,10.54645824432373
1713723114289776979,-0.25246766209602356,0.049002163112163544,-0.06711165606975555,0.5243301391601562,0.013168109580874443,9.831789016723633
1713723114298776979,-0.17470337450504303,0.004261057823896408,-0.11185276508331299,-0.6464344263076782,-2.2816741466522217,8.961496353149414
1713723114308776979,-0.06817692518234253,-0.049002163112163544,-0.05645901337265968,-1.5753847360610962,-3.7828385829925537,8.586804389953613
1713723114318776979,0.05752427875995636,-0.05645901337265968,-0.06285060197114944,0.17956513166427612,-1.723825216293335,10.613495826721191
1713723114327776979,0.08309062570333481,0.002130528911948204,-0.08096009492874146,1.5849615335464478,-0.07302314788103104,11.839326858520508
1713723114337776979,0.024501081556081772,0.08309062570333481,-0.1022653877735138,1.0749965906143188,-0.5710170865058899,10.857704162597656
1713723114346776979,-0.04687163606286049,0.11824434995651245,-0.0884169489145279,-0.07661445438861847,-1.0043675899505615,11.476605415344238
1713723114356776979,0.02130528911948204,0.020240023732185364,-0.11717908829450607,-2.1368250846862793,-2.5474305152893066,9.913191795349121
1713723114365776979,0.04261057823896408,-0.052197955548763275,-0.03515372797846794,-1.703474521636963,-2.3918075561523438,8.258798599243164
1713723114375776979,0.1395496428012848,-0.09800432622432709,-0.0884169489145279,0.6356605291366577,-0.5363011956214905,8.35456657409668
1713723114385776979,0.07350324839353561,-0.04048004746437073,-0.05752427875995636,1.380257248878479,0.43694180250167847,9.142258644104004
1713723114394776979,-0.004261057823896408,0.026631610468029976,-0.10546118021011353,1.3706804513931274,1.2078747749328613,10.578780174255371
1713723114404776979,-0.09480853378772736,0.07563377171754837,-0.08309062570333481,0.9169792532920837,0.912190854549408,9.769539833068848
1713723114414776979,-0.15872439742088318,0.08415588736534119,-0.10120011866092682,0.2561795711517334,0.16879121959209442,9.68694019317627
1713723114423776979,-0.10120011866092682,0.013848437927663326,-0.11504855751991272,-1.215057373046875,-1.8076221942901611,9.375693321228027
1713723114433776979,-0.06285060197114944,-0.05752427875995636,-0.07137271761894226,-1.8028337955474854,-2.7078421115875244,9.582792282104492
1713723114442776979,0.011717909015715122,-0.08735168725252151,-0.07137271761894226,-0.18914192914962769,-1.2461819648742676,10.690110206604004
1713723114452776979,0.01065264455974102,-0.029827404767274857,-0.07989483326673508,1.2557587623596191,-0.42616790533065796,10.702081680297852
1713723114461776979,-0.008522115647792816,0.058589544147253036,-0.09906959533691406,1.358709454536438,-0.6440402269363403,10.360907554626465
1713723114471776979,-0.00532632227987051,0.09480853378772736,-0.10120011866092682,0.20231004059314728,-1.358709454536438,10.562020301818848
1713723114481776979,0.034088462591171265,0.03515372797846794,-0.10120011866092682,-1.2461819648742676,-2.409764051437378,9.99339771270752
1713723114490776979,0.0511326938867569,-0.017044231295585632,-0.052197955548763275,-0.8870517015457153,-1.7848773002624512,9.75397777557373
1713723114500776979,0.092678003013134,-0.044741105288267136,-0.08735168725252151,0.21308395266532898,-0.5422866940498352,9.216479301452637
1713723114509776979,0.06072007119655609,-0.017044231295585632,-0.07563377171754837,0.5937620401382446,-0.05506663769483566,8.69334602355957
1713723114519776979,0.007456851191818714,0.019174760207533836,-0.09800432622432709,0.6667851805686951,0.6212953329086304,9.683348655700684
1713723114528776979,-0.0511326938867569,0.04048004746437073,-0.10333064943552017,0.3495534360408783,0.6308721303939819,9.554061889648438
1713723114538776979,-0.12250541150569916,0.03941478580236435,-0.1022653877735138,-0.17836801707744598,0.14006079733371735,9.637858390808105
1713723114548776979,-0.1257012039422989,-0.014913702383637428,-0.11185276508331299,-1.1001356840133667,-1.0965443849563599,10.506954193115234
1713723114557776979,-0.08415588736534119,-0.09054747968912125,-0.07776430249214172,-1.4508862495422363,-2.580949306488037,10.620678901672363
1713723114567776979,-0.02876213937997818,-0.092678003013134,-0.0511326938867569,0.24061726033687592,-2.0434510707855225,10.532093048095703
1713723114576776979,0.0511326938867569,-0.01810949482023716,-0.07669904083013535,1.8112136125564575,-1.1982979774475098,9.481039047241211
1713723114586776979,0.05965480953454971,0.09054747968912125,-0.08628641813993454,1.6364368200302124,-1.0283095836639404,8.89685344696045
1713723114596776979,0.03941478580236435,0.14168016612529755,-0.09800432622432709,0.5363011956214905,-0.3519476354122162,10.26274585723877
1713723114605776979,0.01065264455974102,0.10333064943552017,-0.09906959533691406,-1.0785878896713257,-0.43694180250167847,11.219228744506836
1713723114615776979,-0.007456851191818714,-0.013848437927663326,-0.08628641813993454,-2.255337953567505,-1.521515130996704,10.439916610717773
1713723114624776979,-0.023435818031430244,-0.10120011866092682,-0.052197955548763275,-1.2844891548156738,-1.3970166444778442,9.386467933654785
1713723114634776979,0.02556634694337845,-0.11930961906909943,-0.07243797928094864,0.6428431272506714,-0.6404489278793335,8.42160415649414
1713723114644776979,0.027696875855326653,-0.04367584362626076,-0.07350324839353561,1.5682021379470825,-0.243011474609375,8.281543731689453
1713723114653776979,0.017044231295585632,0.04580637067556381,-0.09800432622432709,1.6603788137435913,0.4668693244457245,9.498994827270508
1713723114662776979,-0.03621898964047432,0.10439591109752655,-0.10333064943552017,0.8990226984024048,0.5973533391952515,10.322600364685059
1713723114672776979,-0.13102751970291138,0.10439591109752655,-0.10546118021011353,-0.13407529890537262,-0.0071826050989329815,11.760318756103516
1713723114682776979,-0.1022653877735138,-0.01065264455974102,-0.10333064943552017,-2.227804660797119,-2.5905261039733887,11.194089889526367
1713723114693381940,-0.06285060197114944,-0.10546118021011353,-0.034088462591171265,-2.607285499572754,-3.9384617805480957,9.004592895507812
1713723114703381940,0.07350324839353561,-0.10759171098470688,-0.044741105288267136,0.3387795388698578,-1.5370774269104004,8.689754486083984
1713723114713381940,0.11930961906909943,-0.02876213937997818,-0.07350324839353561,2.2661118507385254,0.4429273009300232,9.185354232788086
1713723114723381940,0.09161274135112762,0.07030745595693588,-0.09480853378772736,2.0649988651275635,0.7445967197418213,9.836577415466309
1713723114732381940,-0.022370552644133568,0.13741911947727203,-0.09693906456232071,0.9911994934082031,0.6129156351089478,10.863690376281738
1713723114741381940,-0.13635385036468506,0.12676647305488586,-0.1065264418721199,-0.21787235140800476,0.014365210197865963,11.149797439575195
1713723114751381940,-0.11824434995651245,-0.002130528911948204,-0.10013485699892044,-2.0482394695281982,-2.1954829692840576,9.516951560974121
1713723114760381940,-0.052197955548763275,-0.07776430249214172,-0.055393751710653305,-2.0266916751861572,-3.003525972366333,8.074444770812988
1713723114770381940,0.07563377171754837,-0.09693906456232071,-0.07669904083013535,0.3794809579849243,-1.0103530883789062,8.327033042907715
1713723114779381940,0.055393751710653305,-0.04367584362626076,-0.09374327212572098,1.7310078144073486,0.6045359373092651,10.190918922424316
1713723114790381940,-0.01065264455974102,0.04048004746437073,-0.1161138266324997,1.7130513191223145,0.6643909811973572,11.410764694213867
1713723114799381940,-0.14168016612529755,0.11291802674531937,-0.1022653877735138,1.1300631761550903,-0.09816227108240128,11.579556465148926
1713723114808381940,-0.13315805792808533,0.06391586363315582,-0.13528858125209808,-1.1552022695541382,-2.3295581340789795,11.00015926361084
1713723114818381940,-0.013848437927663326,-0.02556634694337845,-0.06924218684434891,-2.7880477905273438,-4.358644008636475,8.056488990783691
1713723114827381940,0.1299622654914856,-0.05752427875995636,-0.058589544147253036,-0.18315643072128296,-1.844732403755188,8.342596054077148
1713723114837381940,0.1949433982372284,-0.05006742849946022,-0.11504855751991272,2.005143880844116,0.7398083209991455,9.923965454101562
1713723114846381940,0.10439591109752655,0.00532632227987051,-0.12783172726631165,1.5957354307174683,0.7038952708244324,10.143034934997559
1713723114856381940,-0.05326322093605995,0.047936901450157166,-0.13635385036468506,1.180341362953186,0.5590460896492004,11.367669105529785
1713723114866381940,-0.18216021358966827,0.05645901337265968,-0.1576591432094574,0.9828197956085205,-0.06823474913835526,10.400411605834961
1713723114876381940,-0.2269013226032257,0.06072007119655609,-0.15446333587169647,0.773327112197876,-1.1001356840133667,9.41519832611084
1713723114885381940,-0.09480853378772736,-0.002130528911948204,-0.21518342196941376,-0.9816226959228516,-3.110067844390869,7.8098859786987305
1713723114894381940,-0.008522115647792816,-0.02556634694337845,-0.1438107043504715,-0.7469909191131592,-2.6886885166168213,8.418012619018555
1713723114904381940,0.06924218684434891,-0.044741105288267136,-0.22157500684261322,1.622071623802185,-0.568622887134552,11.21563720703125
1713723114914381940,-0.009587380103766918,0.013848437927663326,-0.19707392156124115,2.233790159225464,-0.41778817772865295,11.941081047058105
1713723114923381940,-0.10439591109752655,0.07350324839353561,-0.2322276532649994,1.9979612827301025,-0.5925649404525757,11.841721534729004
1713723114933381940,-0.04261057823896408,0.06285060197114944,-0.2514024078845978,0.12689268589019775,-2.3020248413085938,9.531316757202148
1713723114942381940,0.03941478580236435,0.027696875855326653,-0.22796659171581268,-0.6368576288223267,-3.1423897743225098,7.661445140838623
1713723114952381940,0.17257283627986908,-0.01810949482023716,-0.25779399275779724,0.7565677165985107,-1.0821791887283325,8.005013465881348
1713723114962381940,0.1395496428012848,-0.007456851191818714,-0.2790992856025696,1.48081374168396,0.9289502501487732,10.113107681274414
1713723114971381940,0.04048004746437073,0.02556634694337845,-0.31744879484176636,1.5490484237670898,1.3658920526504517,11.380837440490723
1713723114981381940,-0.11185276508331299,0.06391586363315582,-0.2972087860107422,1.2318167686462402,0.5925649404525757,10.697293281555176
1713723114990381940,-0.20559602975845337,0.0884169489145279,-0.32703617215156555,0.7062894701957703,-0.4010287821292877,9.428365707397461
1713723115000381940,-0.14168016612529755,0.029827404767274857,-0.33236250281333923,-0.9445125460624695,-2.7018566131591797,8.322244644165039
1713723115009381940,-0.052197955548763275,-0.03834952041506767,-0.2972087860107422,-1.98958158493042,-3.845087766647339,9.230844497680664
1713723115019381940,0.052197955548763275,-0.05645901337265968,-0.2727077007293701,-0.06584054231643677,-1.6879122257232666,11.433509826660156
1713723115029381940,0.04580637067556381,0.008522115647792816,-0.2865561246871948,1.525106430053711,-0.3423708379268646,11.901576042175293
1713723115038381940,0.011717909015715122,0.11291802674531937,-0.3014698326587677,1.1312602758407593,-0.8882488012313843,9.819818496704102
1713723115048381940,-0.002130528911948204,0.1533980816602707,-0.2908172011375427,-0.4489127993583679,-1.3419500589370728,9.038111686706543
1713723115057381940,0.03941478580236435,0.07669904083013535,-0.29933929443359375,-1.6962919235229492,-1.455674648284912,8.83939266204834
1713723115067381940,0.055393751710653305,-0.001065264455974102,-0.23968449234962463,-1.2617442607879639,-0.5566518902778625,9.204507827758789
1713723115077381940,0.023435818031430244,-0.052197955548763275,-0.2780340313911438,-0.5147533416748047,0.3447650372982025,10.498574256896973
1713723115086381940,-0.044741105288267136,-0.03834952041506767,-0.24181503057479858,-0.038307227194309235,-0.05267243832349777,10.047266960144043
1713723115096381940,-0.12144014239311218,0.008522115647792816,-0.250337153673172,0.355538934469223,-0.35075053572654724,9.876081466674805
1713723115105381940,-0.092678003013134,0.041545312851667404,-0.2556634545326233,-0.28730419278144836,-0.9002197980880737,9.593565940856934
1713723115115381940,-0.02876213937997818,0.02130528911948204,-0.24288028478622437,-0.9241618514060974,-1.9692308902740479,8.75080680847168
1713723115125381940,0.0,0.009587380103766918,-0.21092236042022705,-0.24181437492370605,-1.482010841369629,10.462660789489746
1713723115134381940,-0.004261057823896408,0.02556634694337845,-0.21624867618083954,0.1149216815829277,-0.9409212470054626,11.968613624572754
1713723115143381940,-0.008522115647792816,0.022370552644133568,-0.21198762953281403,-1.1121066808700562,-2.3116016387939453,11.239580154418945
1713723115153381940,0.03195793181657791,-0.012783173471689224,-0.16618125140666962,-2.140416383743286,-3.0789432525634766,9.59596061706543
1713723115163381940,0.10546118021011353,-0.02556634694337845,-0.15020228922367096,-0.8547300100326538,-1.181538462638855,9.065644264221191
1713723115172381940,0.1619201898574829,-0.003195793367922306,-0.16085493564605713,0.5817909836769104,0.5602431893348694,8.898050308227539
1713723115182381940,0.11185276508331299,0.047936901450157166,-0.15446333587169647,0.4213795065879822,0.7960720658302307,8.378508567810059
1713723115192381940,-0.008522115647792816,0.0884169489145279,-0.14061491191387177,-0.2801215946674347,1.2773065567016602,9.944316864013672
1713723115201381940,-0.13209278881549835,0.08096009492874146,-0.1395496428012848,-1.1097124814987183,1.194706678390503,10.812214851379395
1713723115211381940,-0.1810949593782425,0.004261057823896408,-0.10972223430871964,-2.5438392162323,-0.4273650050163269,10.718840599060059
1713723115220381940,-0.11291802674531937,-0.11398329585790634,-0.08735168725252151,-2.9879636764526367,-2.7557260990142822,8.831012725830078
1713723115230381940,-0.037284255027770996,-0.14487595856189728,-0.049002163112163544,-0.4273650050163269,-2.211045265197754,8.595184326171875
1713723115240381940,0.04261057823896408,-0.1065264418721199,-0.09054747968912125,1.8986018896102905,-0.7577648162841797,9.855731010437012
1713723115249381940,-0.007456851191818714,0.023435818031430244,-0.08522115647792816,1.9955670833587646,-0.7457938194274902,10.717643737792969
1713723115258381940,-0.08415588736534119,0.13528858125209808,-0.08309062570333481,1.1432312726974487,-0.8020575642585754,12.899958610534668
1713723115269381940,-0.00532632227987051,0.08309062570333481,-0.11717908829450607,-2.075772762298584,-3.383007049560547,11.113883972167969
1713723115278381940,0.07243797928094864,-0.003195793367922306,-0.01810949482023716,-3.5278561115264893,-4.534617900848389,8.255207061767578
1713723115288381940,0.21624867618083954,-0.07669904083013535,-0.04048004746437073,-0.7098807692527771,-1.0223240852355957,8.558073997497559
1713723115297381940,0.19813919067382812,-0.07137271761894226,-0.044741105288267136,1.0869675874710083,1.8746598958969116,9.570820808410645
1713723115306381940,0.11824434995651245,-0.02876213937997818,-0.08096009492874146,0.8439561128616333,1.98958158493042,8.953117370605469
1713723115316381940,-0.05752427875995636,0.012783173471689224,-0.027696875855326653,0.33997663855552673,1.546654224395752,9.728838920593262
1713723115326381940,-0.17789916694164276,0.02876213937997818,-0.058589544147253036,0.2753331959247589,1.0211269855499268,10.195707321166992
1713723115335381940,-0.2545982003211975,0.06072007119655609,-0.007456851191818714,0.42018237709999084,-0.002394201699644327,9.081207275390625
1713723115345381940,-0.18642127513885498,0.027696875855326653,-0.07989483326673508,-0.7170634269714355,-1.9333178997039795,8.735244750976562
1713723115355381940,-0.08522115647792816,-0.023435818031430244,-0.008522115647792816,-1.5969325304031372,-3.141192674636841,8.498218536376953
1713723115364381940,-0.002130528911948204,-0.04687163606286049,-0.01810949482023716,-0.22505494952201843,-1.624465823173523,11.101913452148438
1713723115374381940,-0.029827404767274857,-0.013848437927663326,-0.02556634694337845,0.8750807046890259,-0.7146691679954529,13.242329597473145
1713723115383381940,-0.05965480953454971,0.009587380103766918,-0.041545312851667404,-0.04429272934794426,-2.229001760482788,12.782642364501953
1713723115393381940,0.03195793181657791,-0.03195793181657791,-0.03621898964047432,-1.5358803272247314,-4.551377296447754,10.02571964263916
1713723115402381940,0.13102751970291138,-0.03302319720387459,0.013848437927663326,-0.40940847992897034,-3.293224334716797,8.528146743774414
1713723115412381940,0.2790992856025696,-0.01810949482023716,-0.041545312851667404,1.2473790645599365,-0.4225766062736511,7.858966827392578
1713723115422381940,0.2183792144060135,0.05752427875995636,-0.02876213937997818,1.0115501880645752,0.9648632407188416,7.993042469024658
1713723115431381940,0.07989483326673508,0.07989483326673508,-0.055393751710653305,0.31124621629714966,2.2864625453948975,10.226832389831543
1713723115441381940,-0.10972223430871964,0.05645901337265968,-0.02556634694337845,-0.4141968786716461,2.1703438758850098,10.448295593261719
1713723115450381940,-0.27696874737739563,0.01065264455974102,-0.01810949482023716,-0.6548141837120056,1.1563993692398071,9.975440979003906
1713723115460381940,-0.27696874737739563,-0.06391586363315582,-0.030892668291926384,-1.5358803272247314,-0.8822633028030396,9.374496459960938
1713723115469381940,-0.1576591432094574,-0.13741911947727203,0.0,-1.7693150043487549,-3.160346269607544,8.291120529174805
1713723115479381940,-0.03302319720387459,-0.11291802674531937,0.017044231295585632,0.8427590131759644,-2.427720546722412,9.762357711791992
1713723115489381940,0.03515372797846794,-0.024501081556081772,-0.024501081556081772,2.5067291259765625,-1.2773065567016602,11.583148002624512
1713723115498381940,-0.019174760207533836,0.09800432622432709,-0.03302319720387459,1.9608511924743652,-1.7489643096923828,11.682506561279297
1713723115508381940,0.003195793367922306,0.10759171098470688,-0.0511326938867569,-0.507570743560791,-3.141192674636841,12.014103889465332
1713723115518381940,0.09800432622432709,0.02556634694337845,-0.022370552644133568,-2.6443958282470703,-4.162319660186768,9.557653427124023
1713723115527381940,0.2045307755470276,-0.029827404767274857,0.03195793181657791,-1.116895079612732,-1.3958195447921753,8.650250434875488
1713723115537381940,0.2599245309829712,-0.049002163112163544,-0.034088462591171265,0.5386953949928284,1.191115379333496,8.71489429473877
1713723115546381940,0.16511598229408264,-0.001065264455974102,-0.011717909015715122,0.5997475385665894,1.43532395362854,8.22887134552002
1713723115556381940,-0.011717909015715122,0.011717909015715122,-0.03621898964047432,0.21547815203666687,1.8171991109848022,10.101137161254883
1713723115565381940,-0.16405072808265686,0.011717909015715122,-0.002130528911948204,-0.07900865375995636,1.338358759880066,10.14902114868164
1713723115575381940,-0.2908172011375427,0.015978965908288956,0.012783173471689224,0.04189852997660637,0.2777273952960968,9.50617790222168
1713723115584381940,-0.25779399275779724,0.003195793367922306,-0.02130528911948204,-0.9169792532920837,-1.1563993692398071,9.44991397857666
1713723115594381940,-0.11504855751991272,-0.055393751710653305,0.015978965908288956,-2.189497470855713,-3.421314239501953,8.506598472595215
1713723115604381940,-0.017044231295585632,-0.05645901337265968,0.049002163112163544,-0.40940847992897034,-2.6420016288757324,10.720037460327148
1713723115613381940,0.05752427875995636,-0.01810949482023716,0.029827404767274857,1.5119383335113525,-1.1192892789840698,12.360066413879395
1713723115623381940,-0.02556634694337845,0.07137271761894226,0.034088462591171265,1.158793568611145,-1.8124107122421265,12.048819541931152
1713723115632381940,0.026631610468029976,0.052197955548763275,0.009587380103766918,-1.0857704877853394,-3.49314022064209,11.15817642211914
1713723115642381940,0.09800432622432709,-0.004261057823896408,0.06072007119655609,-2.451662540435791,-3.822342872619629,8.428787231445312
1713723115651381940,0.22796659171581268,-0.0511326938867569,0.06817692518234253,-0.7062894701957703,-0.7685387134552002,8.051700592041016
1713723115661381940,0.22903186082839966,-0.037284255027770996,0.03941478580236435,0.6536170244216919,1.7094600200653076,8.973467826843262
1713723115670381940,0.13741911947727203,0.009587380103766918,0.03302319720387459,0.5267243385314941,2.1523873805999756,9.096769332885742
1713723115681381940,-0.049002163112163544,0.037284255027770996,0.05432848632335663,-0.023942016065120697,1.9165583848953247,10.15261173248291
1713723115690381940,-0.1992044448852539,0.029827404767274857,0.05645901337265968,-0.24660277366638184,1.0833762884140015,10.384849548339844
1713723115699381940,-0.28549087047576904,0.01065264455974102,0.08309062570333481,-0.1735796183347702,-0.4572925269603729,9.806650161743164
1713723115709381940,-0.16831177473068237,-0.07989483326673508,0.02876213937997818,-1.7334020137786865,-3.5266590118408203,8.429984092712402
1713723115718381940,-0.07456851005554199,-0.1022653877735138,0.12676647305488586,-1.256955862045288,-3.9025487899780273,8.550890922546387
1713723115728381940,0.06072007119655609,-0.08309062570333481,0.05326322093605995,1.2868833541870117,-1.460463047027588,10.589553833007812
1713723115738381940,-0.001065264455974102,0.03621898964047432,0.08735168725252151,1.91057288646698,-0.5446808934211731,12.591106414794922
1713723115747381940,-0.04367584362626076,0.09161274135112762,0.03302319720387459,1.0402805805206299,-1.422155737876892,14.447810173034668
1713723115758381940,0.05752427875995636,0.015978965908288956,0.047936901450157166,-2.2577321529388428,-4.9368438720703125,11.021707534790039
1713723115766381940,0.14594122767448425,-0.03515372797846794,0.11504855751991272,-2.0003554821014404,-4.717774391174316,8.10437297821045
1713723115776381940,0.32597091794013977,-0.06817692518234253,0.05752427875995636,0.591367781162262,-1.2294225692749023,7.159860134124756
1713723115786381940,0.2631203234195709,-0.008522115647792816,0.07350324839353561,0.6572083830833435,1.3263877630233765,8.040925979614258
1713723115795381940,0.18429075181484222,0.02556634694337845,0.026631610468029976,0.26575639843940735,2.9975404739379883,8.999804496765137
1713723115805381940,-0.012783173471689224,0.04367584362626076,0.10120011866092682,-0.25977087020874023,3.110067844390869,9.367314338684082
1713723115814381940,-0.19707392156124115,0.017044231295585632,0.06604639440774918,-0.2298433631658554,2.4001872539520264,10.257957458496094
1713723115824381940,-0.33129724860191345,0.011717909015715122,0.13315805792808533,0.08619125932455063,0.7984662652015686,9.618704795837402
1713723115834381940,-0.27483823895454407,-0.04367584362626076,0.049002163112163544,-1.2976572513580322,-2.183511972427368,9.959878921508789
1713723115843381940,-0.1065264418721199,-0.11291802674531937,0.11398329585790634,-2.146401882171631,-4.941632270812988,8.69334602355957
1713723115853381940,0.04367584362626076,-0.09161274135112762,0.13741911947727203,0.667982280254364,-3.2369606494903564,10.399214744567871
1713723115862381940,0.11398329585790634,-0.003195793367922306,0.07776430249214172,2.4372973442077637,-1.236605167388916,12.806584358215332
1713723115872381940,0.041545312851667404,0.1161138266324997,0.10333064943552017,1.868674397468567,-1.7501614093780518,11.57716178894043
1713723115882381940,0.006391586735844612,0.13102751970291138,0.0788295716047287,-0.47884032130241394,-2.2182278633117676,11.39520263671875
1713723115891381940,0.10972223430871964,0.058589544147253036,0.11078750342130661,-2.6815059185028076,-2.960430383682251,8.734047889709473
1713723115901381940,0.18322548270225525,0.015978965908288956,0.15978966653347015,-1.7405846118927002,-1.1480196714401245,7.817068576812744
1713723115911381940,0.24714134633541107,-0.02556634694337845,0.13209278881549835,-0.6859387755393982,1.0187327861785889,8.498218536376953
1713723115920381940,0.12676647305488586,-0.01065264455974102,0.16618125140666962,-0.6129156351089478,1.359906554222107,8.60236644744873
1713723115929381940,-0.0511326938867569,0.01065264455974102,0.15978966653347015,-0.41539397835731506,1.8997989892959595,10.790666580200195
1713723115939381940,-0.20133498311042786,0.022370552644133568,0.185356006026268,-0.2621650695800781,1.2641384601593018,10.572794914245605
1713723115948381940,-0.23542344570159912,0.002130528911948204,0.1896170675754547,-1.4173673391342163,-0.8283937573432922,10.256759643554688
1713723115958381940,-0.09480853378772736,-0.08415588736534119,0.18855179846286774,-2.9963433742523193,-3.928884983062744,8.823830604553223
1713723115968381940,0.011717909015715122,-0.09161274135112762,0.2684466242790222,-0.9217676520347595,-3.4967315196990967,9.512163162231445
1713723115977381940,0.1342233121395111,-0.06604639440774918,0.18322548270225525,1.6136919260025024,-1.334767460823059,10.655394554138184
1713723115987381940,0.058589544147253036,0.03941478580236435,0.2173139452934265,1.7070658206939697,-0.7864952683448792,10.352527618408203
1713723115997381940,-0.014913702383637428,0.1065264418721199,0.18216021358966827,1.0450689792633057,-0.16639702022075653,11.441889762878418
1713723116006381940,-0.001065264455974102,0.09374327212572098,0.19707392156124115,-1.304839849472046,-1.4879963397979736,10.398017883300781
1713723116015381940,0.04687163606286049,-0.003195793367922306,0.22583605349063873,-2.738966703414917,-2.934094190597534,8.815450668334961
1713723116025381940,0.11185276508331299,-0.06711165606975555,0.258859246969223,-1.338358759880066,-1.1743558645248413,9.161412239074707
1713723116035381940,0.14487595856189728,-0.07350324839353561,0.23755396902561188,0.24061726033687592,0.6033388376235962,9.528923034667969
1713723116044381940,0.08096009492874146,-0.015978965908288956,0.23116238415241241,0.7218518257141113,0.5590460896492004,8.935160636901855
1713723116054381940,-0.019174760207533836,0.04367584362626076,0.2407497614622116,0.7062894701957703,0.6883329749107361,9.446322441101074
1713723116064381940,-0.11824434995651245,0.07243797928094864,0.22157500684261322,0.15682020783424377,0.5662286877632141,10.205284118652344
1713723116073381940,-0.15233281254768372,0.037284255027770996,0.23861923813819885,-1.545457124710083,-0.9756371974945068,11.36168384552002
1713723116082381940,-0.07243797928094864,-0.092678003013134,0.23116238415241241,-3.0861258506774902,-4.021061897277832,10.789469718933105
1713723116092381940,0.002130528911948204,-0.1438107043504715,0.3067961633205414,-0.727837324142456,-3.998316764831543,10.114304542541504
1713723116102381940,0.13741911947727203,-0.11504855751991272,0.2322276532649994,2.2816741466522217,-1.746570110321045,9.137470245361328
1713723116112381940,0.13528858125209808,0.023435818031430244,0.2322276532649994,2.428917646408081,-0.4513069987297058,8.578424453735352
1713723116121381940,0.11398329585790634,0.14700649678707123,0.18855179846286774,1.400607943534851,0.6572083830833435,9.852139472961426
1713723116130381940,0.02556634694337845,0.18322548270225525,0.19600865244865417,-0.2214636504650116,0.7924807667732239,10.271124839782715
1713723116141381940,-0.08628641813993454,0.08415588736534119,0.19707392156124115,-1.8100165128707886,0.13168108463287354,11.771092414855957
1713723116150381940,-0.08202536404132843,-0.09161274135112762,0.22583605349063873,-2.9520506858825684,-2.036268472671509,10.565611839294434
1713723116159381940,-0.05326322093605995,-0.16298545897006989,0.24927188456058502,-1.4460978507995605,-2.670732021331787,8.254010200500488
1713723116169381940,0.06285060197114944,-0.14487595856189728,0.22157500684261322,1.3108254671096802,-1.1444283723831177,8.252813339233398
1713723116179381940,0.07030745595693588,-0.04048004746437073,0.20133498311042786,2.2194249629974365,-0.16519992053508759,9.30386734008789
1713723116188381940,0.03941478580236435,0.06285060197114944,0.1757686287164688,1.8602946996688843,0.10175357013940811,10.737994194030762
1713723116197381940,-0.05752427875995636,0.11078750342130661,0.1768338978290558,0.9660603404045105,-0.2992752194404602,11.26950740814209
1713723116207381940,-0.05752427875995636,0.023435818031430244,0.13102751970291138,-1.0905588865280151,-1.9369091987609863,10.857704162597656
1713723116217381940,-0.004261057823896408,-0.07563377171754837,0.1896170675754547,-2.0805611610412598,-3.222595453262329,9.172186851501465
1713723116227381940,0.09800432622432709,-0.11078750342130661,0.1757686287164688,-0.02274491637945175,-1.4389152526855469,8.983044624328613
1713723116236381940,0.13741911947727203,-0.058589544147253036,0.13848437368869781,1.7142484188079834,0.35314473509788513,9.563638687133789
1713723116246381940,0.09480853378772736,0.019174760207533836,0.11185276508331299,1.789665699005127,0.3842693567276001,9.45230770111084
1713723116255381940,-0.013848437927663326,0.06817692518234253,0.1022653877735138,1.278503656387329,0.3064578175544739,10.077195167541504
1713723116265381940,-0.11504855751991272,0.0649811327457428,0.07456851005554199,0.5099649429321289,0.2513911724090576,10.396821022033691
1713723116274381940,-0.12144014239311218,0.011717909015715122,0.09161274135112762,-0.8032546639442444,-0.8056488633155823,9.883264541625977
1713723116284381940,-0.0649811327457428,-0.06178533658385277,0.08415588736534119,-1.238999366760254,-2.190694570541382,8.911218643188477
1713723116294381940,-0.007456851191818714,-0.07776430249214172,0.10333064943552017,0.4106055796146393,-1.7525556087493896,9.922768592834473
1713723116303381940,0.01810949482023716,-0.0649811327457428,0.0511326938867569,1.942894697189331,-1.1097124814987183,11.174936294555664
1713723116313381940,-0.015978965908288956,-0.017044231295585632,0.03195793181657791,2.169146776199341,-1.48081374168396,10.714052200317383
1713723116322381940,-0.011717909015715122,0.01810949482023716,-0.007456851191818714,1.4077905416488647,-1.9069815874099731,10.522516250610352
1713723116332381940,0.05326322093605995,0.026631610468029976,-0.01810949482023716,0.5710170865058899,-2.2170307636260986,9.402029991149902
1713723116341381940,0.11185276508331299,0.04580637067556381,-0.002130528911948204,0.712274968624115,-1.2689268589019775,8.992621421813965
1713723116351381940,0.14487595856189728,0.0511326938867569,-0.0511326938867569,0.6847416758537292,-0.15083470940589905,9.265560150146484
1713723116361381940,0.092678003013134,0.04261057823896408,-0.034088462591171265,0.09696516394615173,0.23822306096553802,9.313444137573242
1713723116370381940,-0.002130528911948204,0.01065264455974102,-0.058589544147253036,-0.20231004059314728,0.7003039717674255,10.243592262268066
1713723116380381940,-0.08202536404132843,-0.02556634694337845,-0.06391586363315582,-0.07900865375995636,0.4991910457611084,10.254365921020508
1713723116389381940,-0.12783172726631165,-0.04580637067556381,-0.06711165606975555,0.3363853394985199,-0.34356793761253357,9.258378028869629
1713723116399381940,-0.11291802674531937,-0.04261057823896408,-0.08415588736534119,0.5327098965644836,-1.0642226934432983,8.808267593383789
1713723116408381940,-0.05645901337265968,-0.022370552644133568,-0.09054747968912125,0.5243301391601562,-1.5370774269104004,8.93037223815918
1713723116418381940,-0.02876213937997818,0.006391586735844612,-0.10333064943552017,0.7673416137695312,-1.315613865852356,10.821791648864746
1713723116428381940,-0.003195793367922306,0.006391586735844612,-0.13102751970291138,0.49559974670410156,-1.787271499633789,12.36485481262207
1713723116437381940,0.009587380103766918,-0.03621898964047432,-0.13315805792808533,-0.2513911724090576,-3.330334424972534,11.759121894836426
1713723116447381940,0.04687163606286049,-0.05432848632335663,-0.11078750342130661,0.44651859998703003,-3.162740468978882,10.560823440551758
1713723116457381940,0.12783172726631165,-0.01810949482023716,-0.14700649678707123,1.8614917993545532,-1.6304513216018677,8.983044624328613
1713723116466381940,0.17044231295585632,0.06604639440774918,-0.16298545897006989,1.9584569931030273,-0.3926490843296051,8.299500465393066
1713723116476381940,0.18002969026565552,0.11824434995651245,-0.19281286001205444,1.0330979824066162,0.48961424827575684,8.159439086914062
1713723116485381940,0.1065264418721199,0.10439591109752655,-0.19174760580062866,-0.104147769510746,1.3730746507644653,8.785523414611816
1713723116495381940,-0.024501081556081772,0.03302319720387459,-0.1992044448852539,-0.7469909191131592,1.9021931886672974,10.322600364685059
1713723116504381940,-0.15872439742088318,-0.05006742849946022,-0.20133498311042786,-0.7146691679954529,1.059434175491333,10.383652687072754
1713723116514381940,-0.2599245309829712,-0.09374327212572098,-0.19281286001205444,0.090979665517807,-0.3842693567276001,10.588356971740723
1713723116523381940,-0.16405072808265686,-0.13315805792808533,-0.22370553016662598,0.06584054231643677,-3.002328872680664,10.007762908935547
1713723116533381940,-0.03515372797846794,-0.058589544147253036,-0.17789916694164276,1.01753568649292,-4.416104793548584,8.412027359008789
1713723116543381940,0.08948221057653427,0.01810949482023716,-0.2737729549407959,2.655169725418091,-2.126051187515259,9.714472770690918
1713723116552381940,0.12250541150569916,0.11078750342130661,-0.250337153673172,2.1775264739990234,-0.2190694510936737,11.688492774963379
1713723116562381940,0.06817692518234253,0.12250541150569916,-0.3195793330669403,0.8846575021743774,-0.5518634915351868,11.0671968460083
1713723116571381940,-0.019174760207533836,0.0788295716047287,-0.2737729549407959,-0.933738648891449,-1.2473790645599365,11.0671968460083
1713723116581381940,0.008522115647792816,-0.04261057823896408,-0.3014698326587677,-1.8531121015548706,-2.0649988651275635,9.93833065032959
1713723116590381940,0.04580637067556381,-0.09161274135112762,-0.23329290747642517,-0.3579331338405609,-1.5849615335464478,8.342596054077148
1713723116601381940,0.1257012039422989,-0.08096009492874146,-0.29933929443359375,1.5179238319396973,-0.39384618401527405,8.006210327148438
1713723116610381940,0.1022653877735138,0.003195793367922306,-0.2886866629123688,1.9033902883529663,0.05267243832349777,8.42280101776123
1713723116619381940,0.022370552644133568,0.06924218684434891,-0.3238403797149658,1.5155296325683594,0.7086836695671082,10.69609546661377
1713723116629381940,-0.09906959533691406,0.10546118021011353,-0.31318774819374084,0.6883329749107361,0.5123591423034668,11.585541725158691
1713723116639381940,-0.17789916694164276,0.08522115647792816,-0.30466562509536743,-1.2258312702178955,-1.0438718795776367,12.51449203491211
1713723116648381940,-0.055393751710653305,-0.037284255027770996,-0.296143501996994,-3.134010076522827,-4.352658748626709,9.780313491821289
1713723116657381940,0.058589544147253036,-0.07137271761894226,-0.2034655064344406,-1.258152961730957,-3.957615375518799,7.905653953552246
1713723116667381940,0.24181503057479858,-0.06817692518234253,-0.296143501996994,1.2725181579589844,-0.9014168977737427,8.358158111572266
1713723116677381940,0.18642127513885498,0.02876213937997818,-0.258859246969223,1.3658920526504517,0.6045359373092651,8.87171459197998
1713723116687381940,0.09054747968912125,0.08628641813993454,-0.2929477095603943,0.8463503122329712,1.8375498056411743,10.656591415405273
1713723116696381940,-0.0788295716047287,0.10972223430871964,-0.25353294610977173,-0.010773907415568829,1.7573440074920654,10.797849655151367
1713723116705381940,-0.22477079927921295,0.09906959533691406,-0.25246766209602356,-0.7182605266571045,0.9971849918365479,10.427945137023926
1713723116715381940,-0.19174760580062866,-0.009587380103766918,-0.2641855776309967,-2.5462334156036377,-1.8602946996688843,9.157821655273438
1713723116725381940,-0.08415588736534119,-0.09906959533691406,-0.1906823366880417,-3.1711201667785645,-4.104858875274658,8.914810180664062
1713723116734381940,0.05326322093605995,-0.09374327212572098,-0.1810949593782425,-0.18315643072128296,-2.0386626720428467,10.78468132019043
1713723116744381940,0.11078750342130661,-0.014913702383637428,-0.18855179846286774,1.942894697189331,-0.42018237709999084,10.99896240234375
1713723116753381940,0.07030745595693588,0.10333064943552017,-0.1992044448852539,1.4413094520568848,-0.6727706789970398,9.725247383117676
1713723116763381940,0.013848437927663326,0.1896170675754547,-0.16298545897006989,0.06224924325942993,-0.2885012924671173,9.859322547912598
1713723116773381940,0.023435818031430244,0.13102751970291138,-0.1949433982372284,-2.1499931812286377,-0.8415618538856506,9.63067626953125
1713723116782381940,0.02876213937997818,0.04261057823896408,-0.10013485699892044,-3.227383852005005,-1.3718775510787964,9.199719429016113
1713723116792381940,0.03195793181657791,-0.03941478580236435,-0.12463594228029251,-2.165555477142334,-0.181959331035614,9.72285270690918
1713723116801381940,0.008522115647792816,-0.06924218684434891,-0.07669904083013535,-0.9768342971801758,0.6117185354232788,9.704895973205566
1713723116811381940,-0.037284255027770996,-0.05645901337265968,-0.09161274135112762,-0.3423708379268646,0.34835633635520935,9.120711326599121
1713723116820381940,-0.07456851005554199,-0.00532632227987051,-0.06817692518234253,-0.002394201699644327,0.104147769510746,9.285911560058594
1713723116830381940,-0.10013485699892044,0.024501081556081772,-0.07563377171754837,0.040701426565647125,-0.27413609623908997,10.271124839782715
1713723116840381940,-0.0649811327457428,-0.004261057823896408,-0.07350324839353561,-1.1061211824417114,-1.964442491531372,11.268310546875
1713723116849381940,-0.03515372797846794,-0.06178533658385277,-0.024501081556081772,-2.0817582607269287,-3.6343982219696045,11.61068058013916
1713723116859381940,0.017044231295585632,-0.07456851005554199,0.0,-0.7230489253997803,-2.8347346782684326,11.013327598571777
1713723116868381940,0.0884169489145279,-0.01065264455974102,-0.002130528911948204,0.8248024582862854,-1.304839849472046,9.400833129882812
1713723116878381940,0.11930961906909943,0.07350324839353561,-0.014913702383637428,0.7350199222564697,-0.4189852774143219,8.461108207702637
1713723116887381940,0.13848437368869781,0.11291802674531937,-0.012783173471689224,-0.2561795711517334,0.2621650695800781,8.398859024047852
1713723116897381940,0.08415588736534119,0.08522115647792816,-0.002130528911948204,-1.3706804513931274,0.8188169598579407,9.345766067504883
1713723116907381940,-0.015978965908288956,0.01065264455974102,0.017044231295585632,-1.9201496839523315,1.0462660789489746,10.488997459411621
1713723116916381940,-0.1203748807311058,-0.06711165606975555,0.03621898964047432,-1.622071623802185,0.569819986820221,10.347739219665527
1713723116926381940,-0.1576591432094574,-0.1161138266324997,0.05326322093605995,-0.9900023937225342,-0.43694180250167847,9.582792282104492
1713723116935381940,-0.10972223430871964,-0.1203748807311058,0.047936901450157166,-0.21547815203666687,-1.6148890256881714,8.708908081054688
1713723116945381940,-0.05006742849946022,-0.0649811327457428,0.055393751710653305,1.092953085899353,-1.6101006269454956,9.259574890136719
1713723116954381940,0.002130528911948204,0.007456851191818714,0.019174760207533836,1.701080322265625,-1.1312602758407593,10.268731117248535
1713723116964381940,-0.012783173471689224,0.06178533658385277,0.014913702383637428,0.7685387134552002,-1.4293383359909058,11.60708999633789
1713723116974381940,0.019174760207533836,0.011717909015715122,-0.002130528911948204,-1.0474631786346436,-2.8622679710388184,12.370840072631836
1713723116983381940,0.04687163606286049,-0.04261057823896408,0.05432848632335663,-1.215057373046875,-3.3207576274871826,10.705672264099121
1713723116993381940,0.12357067316770554,-0.047936901450157166,0.04048004746437073,0.5147533416748047,-1.5574281215667725,8.882488250732422
1713723117003381940,0.15552860498428345,0.014913702383637428,0.01810949482023716,1.159990668296814,0.04668693244457245,8.191761016845703
1713723117012381940,0.15126754343509674,0.07456851005554199,0.011717909015715122,0.5027823448181152,0.8008604645729065,8.29590892791748
1713723117022381940,0.055393751710653305,0.09161274135112762,0.014913702383637428,-0.46088382601737976,1.2856862545013428,9.57321548461914
1713723117031381940,-0.07243797928094864,0.05006742849946022,0.022370552644133568,-1.1432312726974487,1.3000514507293701,10.720037460327148
1713723117041381940,-0.17789916694164276,-0.022370552644133568,0.04367584362626076,-1.3180080652236938,0.3579331338405609,10.551246643066406
1713723117050381940,-0.14274543523788452,-0.11078750342130661,0.05006742849946022,-1.8411411046981812,-1.8399440050125122,9.273940086364746
1713723117060381940,-0.09480853378772736,-0.13741911947727203,0.08415588736534119,-1.0462660789489746,-2.6132709980010986,8.706514358520508
1713723117070381940,0.007456851191818714,-0.10439591109752655,0.0511326938867569,1.092953085899353,-1.2653355598449707,9.733627319335938
1713723117080381940,0.015978965908288956,-0.006391586735844612,0.03834952041506767,1.9955670833587646,-0.5638344883918762,10.776301383972168
1713723117089381940,-0.007456851191818714,0.07243797928094864,0.003195793367922306,1.623268723487854,-0.7876923680305481,11.139022827148438
1713723117098381940,0.006391586735844612,0.06072007119655609,0.0,-0.19393032789230347,-2.126051187515259,11.103110313415527
1713723117108381940,0.04261057823896408,-0.013848437927663326,0.024501081556081772,-1.8626888990402222,-3.0789432525634766,10.417171478271484
1713723117117381940,0.09693906456232071,-0.055393751710653305,0.058589544147253036,-1.0462660789489746,-1.5574281215667725,9.769539833068848
1713723117127381940,0.14487595856189728,-0.0511326938867569,0.017044231295585632,0.5315127968788147,0.026336219161748886,8.887276649475098
1713723117137381940,0.11824434995651245,-0.003195793367922306,0.03302319720387459,0.9085995554924011,0.3890577554702759,8.201337814331055
1713723117146381940,0.041545312851667404,0.04687163606286049,0.02556634694337845,0.6033388376235962,1.039083480834961,9.430760383605957
1713723117156381940,-0.05645901337265968,0.06711165606975555,0.02876213937997818,-0.05267243832349777,1.1671732664108276,10.145429611206055
1713723117166381940,-0.15126754343509674,0.04687163606286049,0.0511326938867569,-0.712274968624115,0.5183446407318115,9.916783332824707
1713723117175381940,-0.15020228922367096,-0.020240023732185364,0.044741105288267136,-1.699883222579956,-1.1180921792984009,9.732429504394531
1713723117185381940,-0.09374327212572098,-0.10013485699892044,0.0788295716047287,-2.030282974243164,-2.7880477905273438,9.75517463684082
1713723117193391954,-0.034088462591171265,-0.12250541150569916,0.0884169489145279,0.038307227194309235,-2.0649988651275635,10.770316123962402
1713723117203391954,0.02556634694337845,-0.07243797928094864,0.05326322093605995,2.0015525817871094,-1.2437877655029297,10.753557205200195
1713723117212391954,0.006391586735844612,0.03941478580236435,0.034088462591171265,2.072181463241577,-1.4449007511138916,10.199298858642578
1713723117222391954,0.03515372797846794,0.10865697264671326,0.012783173471689224,0.712274968624115,-1.5550339221954346,10.587160110473633
1713723117231391954,0.0884169489145279,0.08948221057653427,0.014913702383637428,-1.180341362953186,-2.0039467811584473,9.635464668273926
1713723117242391954,0.10013485699892044,0.04261057823896408,0.06072007119655609,-1.4449007511138916,-1.0486602783203125,9.50498104095459
1713723117251391954,0.10759171098470688,-0.022370552644133568,0.03195793181657791,-0.9133879542350769,0.12090718746185303,9.475052833557129
1713723117260391954,0.03834952041506767,-0.052197955548763275,0.0649811327457428,-0.5746083855628967,0.3579331338405609,9.121908187866211
1713723117270391954,-0.04048004746437073,-0.06072007119655609,0.052197955548763275,0.004788403399288654,0.6440402269363403,9.793481826782227
1713723117279391954,-0.09054747968912125,-0.03302319720387459,0.06391586363315582,0.4620809257030487,0.3471592366695404,9.489418029785156
1713723117289391954,-0.11185276508331299,0.014913702383637428,0.06285060197114944,0.545877993106842,-0.2932896912097931,9.165003776550293
1713723117298391954,-0.07563377171754837,0.03302319720387459,0.044741105288267136,-0.4129997789859772,-1.313219666481018,10.04846477508545
1713723117309391954,-0.017044231295585632,-0.014913702383637428,0.05432848632335663,-1.6519991159439087,-2.6168622970581055,10.99896240234375
1713723117318391954,0.006391586735844612,-0.07137271761894226,0.08096009492874146,-0.6799532771110535,-2.161964178085327,11.346121788024902
1713723117327391954,0.0511326938867569,-0.0884169489145279,0.049002163112163544,0.9971849918365479,-1.1420341730117798,10.127472877502441
1713723117337391954,0.04261057823896408,-0.024501081556081772,0.04687163606286049,1.4640543460845947,-0.8391676545143127,8.936357498168945
1713723117346391954,0.047936901450157166,0.05432848632335663,0.026631610468029976,1.258152961730957,-0.325611412525177,9.064447402954102
1713723117356391954,0.03302319720387459,0.10333064943552017,0.023435818031430244,0.3280056416988373,-0.05386953800916672,9.454702377319336
1713723117365391954,-0.01065264455974102,0.08628641813993454,0.029827404767274857,-0.8092401623725891,-0.15442600846290588,10.399214744567871
1713723117375391954,-0.01810949482023716,-0.006391586735844612,0.037284255027770996,-2.116474151611328,-1.071405291557312,10.32978343963623
1713723117385391954,-0.03621898964047432,-0.09374327212572098,0.07989483326673508,-1.8914192914962769,-1.3623007535934448,9.694122314453125
1713723117394391954,0.003195793367922306,-0.13209278881549835,0.05965480953454971,-0.1496376097202301,-0.6787561774253845,9.091980934143066
1713723117404391954,0.0,-0.07776430249214172,0.06711165606975555,0.9636661410331726,-0.1496376097202301,9.230844497680664
1713723117414391954,-0.003195793367922306,0.009587380103766918,0.044741105288267136,1.2342109680175781,-0.005985504016280174,9.830592155456543
1713723117423391954,-0.049002163112163544,0.08309062570333481,0.04367584362626076,0.7050923705101013,-0.3292027413845062,10.427945137023926
1713723117433391954,-0.04367584362626076,0.04580637067556381,0.02876213937997818,-0.9684545993804932,-1.6807295083999634,11.324573516845703
1713723117442391954,-0.009587380103766918,-0.06072007119655609,0.06604639440774918,-2.1511902809143066,-3.1220390796661377,10.396821022033691
1713723117452391954,0.055393751710653305,-0.11185276508331299,0.09161274135112762,-0.5351040959358215,-1.7585411071777344,9.695319175720215
1713723117462391954,0.12357067316770554,-0.08415588736534119,0.052197955548763275,1.4401123523712158,-0.23582886159420013,8.974664688110352
1713723117471391954,0.10013485699892044,0.019174760207533836,0.05326322093605995,1.702277421951294,-0.07661445438861847,8.462306022644043
1713723117481391954,0.013848437927663326,0.1022653877735138,0.03302319720387459,1.0199298858642578,0.5327098965644836,10.395623207092285
1713723117490391954,-0.08628641813993454,0.11504855751991272,0.03941478580236435,-0.18076223134994507,0.447715699672699,11.285069465637207
1713723117500391954,-0.10759171098470688,0.01065264455974102,0.04580637067556381,-2.0638017654418945,-1.5705963373184204,10.450690269470215
1713723117510391954,-0.055393751710653305,-0.10013485699892044,0.09480853378772736,-2.7293899059295654,-3.044227361679077,8.942342758178711
1713723117519391954,0.05006742849946022,-0.12250541150569916,0.09587380290031433,-0.33279404044151306,-1.3611036539077759,8.635885238647461
1713723117529391954,0.11185276508331299,-0.0649811327457428,0.07137271761894226,1.6364368200302124,0.25737667083740234,9.121908187866211
1713723117538391954,0.06391586363315582,0.037284255027770996,0.05752427875995636,1.40180504322052,0.4429273009300232,10.013748168945312
1713723117548391954,-0.049002163112163544,0.11291802674531937,0.06072007119655609,0.6236895322799683,0.38067805767059326,11.692083358764648
1713723117558391954,-0.12463594228029251,0.07030745595693588,0.04580637067556381,-1.0498573780059814,-0.8667010068893433,12.294225692749023
1713723117567391954,-0.049002163112163544,-0.07669904083013535,0.07350324839353561,-2.783259391784668,-3.599682092666626,9.643844604492188
1713723117577391954,0.03195793181657791,-0.12144014239311218,0.11504855751991272,-1.0809820890426636,-3.094505548477173,8.118738174438477
1713723117586391954,0.18002969026565552,-0.10865697264671326,0.058589544147253036,1.502361536026001,-0.7589619159698486,8.142680168151855
1713723117596391954,0.1342233121395111,-0.009587380103766918,0.058589544147253036,1.7920598983764648,0.2537853717803955,8.87530517578125
1713723117605391954,0.03834952041506767,0.07243797928094864,0.0511326938867569,1.2988543510437012,1.3335703611373901,11.477803230285645
1713723117615391954,-0.10120011866092682,0.11078750342130661,0.07563377171754837,0.5518634915351868,0.9576806426048279,11.568782806396484
1713723117625391954,-0.19600865244865417,0.07989483326673508,0.07350324839353561,-0.7098807692527771,-0.4884171485900879,11.382034301757812
1713723117634391954,-0.07456851005554199,-0.04261057823896408,0.06072007119655609,-2.628833532333374,-3.4536359310150146,8.428787231445312
1713723117643391954,0.034088462591171265,-0.0649811327457428,0.14274543523788452,-1.6160861253738403,-3.0346505641937256,7.493851184844971
1713723117653391954,0.18216021358966827,-0.07776430249214172,0.05752427875995636,0.6799532771110535,-0.3902548849582672,8.955511093139648
1713723117663391954,0.07563377171754837,0.015978965908288956,0.08948221057653427,1.139639973640442,0.6165069341659546,11.046846389770508
1713723117672391954,-0.055393751710653305,0.06072007119655609,0.04580637067556381,1.2054805755615234,0.8918401002883911,12.831724166870117
1713723117682391954,-0.16405072808265686,0.044741105288267136,0.06285060197114944,0.26815059781074524,-0.7864952683448792,11.39520263671875
1713723117691391954,-0.06285060197114944,-0.06604639440774918,0.041545312851667404,-2.208651065826416,-3.9468414783477783,8.71609115600586
1713723117701391954,0.04367584362626076,-0.08948221057653427,0.11824434995651245,-1.6268600225448608,-3.4739866256713867,7.747636795043945
1713723117711391954,0.2269013226032257,-0.07989483326673508,0.055393751710653305,1.1264718770980835,-0.5662286877632141,8.172607421875
1713723117721391954,0.1715075671672821,0.012783173471689224,0.05965480953454971,1.5406687259674072,0.910993754863739,9.275136947631836
1713723117730391954,0.06711165606975555,0.07456851005554199,0.05326322093605995,1.0570399761199951,2.0195090770721436,11.57596492767334
1713723117739391954,-0.10333064943552017,0.09161274135112762,0.07030745595693588,0.4537012279033661,1.425747036933899,11.196483612060547
1713723117749391954,-0.23542344570159912,0.07030745595693588,0.08202536404132843,-0.19393032789230347,0.1951274424791336,10.617087364196777
1713723117758391954,-0.13848437368869781,-0.034088462591171265,0.05006742849946022,-2.3104045391082764,-2.895787000656128,8.163030624389648
1713723117768391954,-0.02876213937997818,-0.07456851005554199,0.12783172726631165,-2.076969861984253,-3.7672762870788574,7.681796073913574
1713723117778391954,0.1257012039422989,-0.08415588736534119,0.07563377171754837,0.6236895322799683,-1.1671732664108276,9.99100399017334
1713723117788391954,0.06178533658385277,-0.002130528911948204,0.08522115647792816,1.5885528326034546,0.36152446269989014,12.131420135498047
1713723117797391954,-0.011717909015715122,0.05645901337265968,0.03302319720387459,1.5334861278533936,0.12449848651885986,11.962628364562988
1713723117807391954,-0.07456851005554199,0.07776430249214172,0.05752427875995636,0.5159504413604736,-1.1875240802764893,10.411186218261719
1713723117816391954,0.009587380103766918,0.00532632227987051,0.012783173471689224,-1.523909330368042,-2.8874073028564453,8.564059257507324
1713723117826391954,0.08202536404132843,-0.023435818031430244,0.0884169489145279,-1.3611036539077759,-2.098517656326294,7.934384346008301
1713723117835391954,0.1672465205192566,-0.049002163112163544,0.02556634694337845,0.5279214382171631,0.07182604819536209,8.948328971862793
1713723117845391954,0.0884169489145279,-0.013848437927663326,0.049002163112163544,1.1109095811843872,0.7457938194274902,9.600749015808105
1713723117854391954,-0.04261057823896408,0.017044231295585632,0.022370552644133568,1.1288660764694214,1.1563993692398071,11.128249168395996
1713723117864391954,-0.15978966653347015,0.03621898964047432,0.017044231295585632,0.7697358131408691,0.628477931022644,10.807426452636719
1713723117874391954,-0.16937704384326935,0.01810949482023716,0.022370552644133568,-0.7589619159698486,-1.1013327836990356,10.075997352600098
1713723117883391954,-0.04580637067556381,-0.049002163112163544,0.007456851191818714,-1.964442491531372,-3.3243489265441895,8.756793022155762
1713723117893391954,0.058589544147253036,-0.05326322093605995,0.07456851005554199,-0.12090718746185303,-2.517503023147583,9.66658878326416
1713723117902391954,0.13315805792808533,-0.04048004746437073,-0.009587380103766918,1.6615759134292603,-0.8439561128616333,10.793061256408691
1713723117912391954,0.049002163112163544,0.03195793181657791,0.012783173471689224,1.5885528326034546,-0.7493851184844971,10.626664161682129
1713723117921391954,-0.03941478580236435,0.06924218684434891,-0.02876213937997818,1.0402805805206299,-0.295683890581131,11.076773643493652
1713723117931391954,-0.029827404767274857,0.055393751710653305,-0.02876213937997818,-0.5279214382171631,-0.8798691034317017,9.532513618469238
1713723117941391954,0.01810949482023716,0.001065264455974102,-0.017044231295585632,-1.502361536026001,-1.7573440074920654,8.146270751953125
1713723117950391954,0.08415588736534119,-0.03834952041506767,-0.009587380103766918,-0.5614402890205383,-0.8080430626869202,8.75080680847168
1713723117960391954,0.08628641813993454,-0.047936901450157166,-0.01065264455974102,0.31603461503982544,0.45848962664604187,9.827000617980957
1713723117969391954,0.017044231295585632,-0.034088462591171265,-0.02556634694337845,0.424970805644989,0.5770025849342346,10.219649314880371
1713723117979391954,-0.08735168725252151,-0.008522115647792816,-0.007456851191818714,0.5434837937355042,0.2968810200691223,10.822988510131836
1713723117988391954,-0.1438107043504715,0.015978965908288956,-0.02556634694337845,0.6404489278793335,-0.5363011956214905,10.94269847869873
1713723117998391954,-0.058589544147253036,-0.004261057823896408,-0.02130528911948204,-0.7350199222564697,-2.852691173553467,9.469067573547363
1713723118008391954,0.012783173471689224,-0.015978965908288956,0.01065264455974102,-1.4951789379119873,-3.355473518371582,8.912415504455566
1713723118018391954,0.11824434995651245,-0.01810949482023716,-0.002130528911948204,-0.10295066982507706,-1.1204863786697388,9.865307807922363
1713723118027391954,0.0884169489145279,0.01065264455974102,-0.01065264455974102,0.6787561774253845,0.3292027413845062,10.969035148620605
1713723118036391954,0.027696875855326653,0.023435818031430244,-0.02556634694337845,0.4620809257030487,0.23942016065120697,10.679336547851562
1713723118046391954,-0.049002163112163544,0.026631610468029976,-0.009587380103766918,0.15682020783424377,-0.28969839215278625,9.54209041595459
1713723118055391954,-0.0511326938867569,-0.008522115647792816,-0.02556634694337845,-0.2669534981250763,-0.7996633648872375,9.17697525024414
1713723118065391954,-0.015978965908288956,-0.030892668291926384,-0.004261057823896408,-0.37828385829925537,-1.2054805755615234,8.948328971862793
1713723118075391954,0.030892668291926384,-0.02876213937997818,-0.014913702383637428,0.12090718746185303,-0.8259995579719543,9.308655738830566
1713723118084391954,0.03834952041506767,-0.008522115647792816,-0.014913702383637428,0.2825157940387726,-0.2825157940387726,9.842562675476074
1713723118094391954,0.008522115647792816,0.011717909015715122,-0.02130528911948204,0.10175357013940811,-0.1364694982767105,10.200495719909668
1713723118104391954,-0.044741105288267136,0.022370552644133568,-0.01810949482023716,-0.08499415963888168,-0.28131869435310364,10.291476249694824
1713723118113391954,-0.06285060197114944,0.002130528911948204,-0.022370552644133568,-0.6033388376235962,-0.7984662652015686,10.253169059753418
1713723118123391954,-0.029827404767274857,-0.034088462591171265,-0.009587380103766918,-1.1109095811843872,-1.5526397228240967,9.578003883361816
1713723118132391954,0.002130528911948204,-0.03834952041506767,0.002130528911948204,-0.46567222476005554,-1.2473790645599365,9.510966300964355
1713723118142391954,0.027696875855326653,-0.02876213937997818,-0.015978965908288956,0.32441431283950806,-0.652419924736023,10.169371604919434
1713723118151391954,-0.011717909015715122,-0.011717909015715122,-0.009587380103766918,0.4297592043876648,-0.8283937573432922,10.626664161682129
1713723118161391954,-0.04687163606286049,-0.017044231295585632,-0.023435818031430244,0.015562310814857483,-1.2725181579589844,11.257535934448242
1713723118170391954,-0.003195793367922306,-0.0511326938867569,-0.017044231295585632,-0.4345476031303406,-2.3535001277923584,10.135852813720703
1713723118181391954,0.04367584362626076,-0.047936901450157166,0.004261057823896408,0.47165772318840027,-2.032677173614502,9.323020935058594
1713723118190391954,0.13528858125209808,-0.00532632227987051,-0.029827404767274857,1.3443442583084106,-0.8248024582862854,8.686163902282715
1713723118199391954,0.12357067316770554,0.05965480953454971,-0.029827404767274857,0.8882488012313843,0.015562310814857483,8.576030731201172
1713723118209391954,0.07137271761894226,0.07989483326673508,-0.03834952041506767,-0.08858545869588852,1.037886381149292,9.890446662902832
1713723118218391954,-0.02556634694337845,0.0511326938867569,-0.030892668291926384,-0.9576806426048279,1.0845733880996704,10.213664054870605
1713723118228391954,-0.13635385036468506,-0.012783173471689224,-0.02130528911948204,-1.216254472732544,0.529118537902832,10.311826705932617
1713723118238391954,-0.15446333587169647,-0.08948221057653427,-0.012783173471689224,-1.192312479019165,-0.7386112213134766,9.795876502990723
1713723118247391954,-0.11078750342130661,-0.12357067316770554,0.01065264455974102,-0.6141127347946167,-1.8830395936965942,9.068038940429688
1713723118257391954,-0.024501081556081772,-0.07563377171754837,0.009587380103766918,0.9313444495201111,-1.5143325328826904,9.336189270019531
1713723118267391954,0.019174760207533836,0.01810949482023716,-0.011717909015715122,1.789665699005127,-0.9493009448051453,10.407594680786133
1713723118276391954,0.0,0.08628641813993454,-0.022370552644133568,1.301248550415039,-1.2449848651885986,11.692083358764648
1713723118285391954,0.022370552644133568,0.05006742849946022,-0.04048004746437073,-0.5015852451324463,-2.7688941955566406,11.70166015625
1713723118295391954,0.044741105288267136,-0.01810949482023716,0.006391586735844612,-1.4209586381912231,-3.288435935974121,10.159794807434082
1713723118305391954,0.1203748807311058,-0.052197955548763275,0.004261057823896408,0.05506663769483566,-1.2725181579589844,9.208099365234375
1713723118314391954,0.15233281254768372,-0.004261057823896408,-0.022370552644133568,1.115697979927063,0.47165772318840027,8.785523414611816
1713723118324391954,0.14061491191387177,0.058589544147253036,-0.034088462591171265,0.8619126081466675,0.9301473498344421,7.935581207275391
1713723118334391954,0.05006742849946022,0.08628641813993454,-0.02876213937997818,0.0802057534456253,1.425747036933899,8.537723541259766
1713723118343391954,-0.06924218684434891,0.0649811327457428,-0.03941478580236435,-0.7912836670875549,1.788468599319458,10.023324966430664
1713723118353391954,-0.18642127513885498,0.01810949482023716,-0.015978965908288956,-1.2102689743041992,1.1073182821273804,10.359710693359375
1713723118362391954,-0.23009711503982544,-0.05326322093605995,-0.013848437927663326,-1.5849615335464478,-0.5410895943641663,10.313023567199707
1713723118372391954,-0.15446333587169647,-0.1257012039422989,0.007456851191818714,-1.7693150043487549,-2.850296974182129,9.476249694824219
1713723118381391954,-0.0788295716047287,-0.1065264418721199,0.034088462591171265,0.20470423996448517,-2.956839084625244,9.943119049072266
1713723118391391954,0.015978965908288956,-0.029827404767274857,-0.007456851191818714,2.140416383743286,-1.7860743999481201,10.946290016174316
1713723118400391954,-0.003195793367922306,0.06285060197114944,-0.009587380103766918,1.9788076877593994,-1.8016366958618164,11.945869445800781
1713723118410391954,0.05645901337265968,0.06178533658385277,-0.04580637067556381,0.033518824726343155,-2.942473888397217,11.622652053833008
1713723118420391954,0.09800432622432709,0.04048004746437073,0.015978965908288956,-0.894234299659729,-3.1316158771514893,9.545681953430176
1713723118430391954,0.1906823366880417,0.024501081556081772,-0.004261057823896408,0.23822306096553802,-1.015141487121582,8.828619003295898
1713723118439391954,0.19813919067382812,0.058589544147253036,-0.014913702383637428,0.40701428055763245,0.8870517015457153,8.588001251220703
1713723118448391954,0.148071750998497,0.05752427875995636,-0.019174760207533836,-0.27413609623908997,1.7417817115783691,8.215703010559082
1713723118458391954,0.012783173471689224,0.027696875855326653,-0.011717909015715122,-0.8080430626869202,2.0458452701568604,8.705317497253418
1713723118468391954,-0.14700649678707123,-0.014913702383637428,-0.01810949482023716,-0.7457938194274902,1.886630892753601,10.042478561401367
1713723118477391954,-0.26738137006759644,-0.04367584362626076,-0.007456851191818714,-0.2992752194404602,0.8870517015457153,10.24119758605957
1713723118487391954,-0.26738137006759644,-0.06604639440774918,-0.008522115647792816,-0.5985504388809204,-1.059434175491333,10.067618370056152
1713723118497391954,-0.13635385036468506,-0.09587380290031433,-0.00532632227987051,-1.259350061416626,-3.671508312225342,9.374496459960938
1713723118506391954,-0.026631610468029976,-0.0511326938867569,0.034088462591171265,0.5051765441894531,-3.5027170181274414,10.371681213378906
1713723118515391954,0.07989483326673508,0.011717909015715122,-0.026631610468029976,2.188300371170044,-1.9057844877243042,11.439495086669922
1713723118525391954,0.023435818031430244,0.09480853378772736,-0.012783173471689224,1.6041151285171509,-1.4975731372833252,11.492168426513672
1713723118535391954,0.03834952041506767,0.07669904083013535,-0.058589544147253036,-0.2346317619085312,-1.909375786781311,11.062408447265625
1713723118544391954,0.07137271761894226,0.024501081556081772,0.002130528911948204,-1.3706804513931274,-2.2158336639404297,9.14704704284668
1713723118554391954,0.14274543523788452,-0.023435818031430244,-0.007456851191818714,-0.42616790533065796,-0.6332663297653198,8.51138687133789
1713723118563391954,0.14913702011108398,-0.009587380103766918,-0.015978965908288956,0.27653029561042786,0.9445125460624695,8.634688377380371
1713723118573391954,0.09161274135112762,0.015978965908288956,-0.020240023732185364,0.21787235140800476,1.4269441366195679,8.614337921142578
1713723118582391954,-0.03515372797846794,0.030892668291926384,-0.014913702383637428,0.07661445438861847,1.5143325328826904,9.464279174804688
1713723118592391954,-0.16511598229408264,0.026631610468029976,-0.027696875855326653,-0.03950432687997818,1.1623848676681519,10.346542358398438
1713723118601391954,-0.24820661544799805,0.012783173471689224,-0.007456851191818714,-0.19273322820663452,-0.0035913025494664907,10.681730270385742
1713723118611391954,-0.15659387409687042,-0.055393751710653305,-0.022370552644133568,-1.5909470319747925,-2.851494073867798,9.587580680847168
1713723118621391954,-0.0788295716047287,-0.07776430249214172,0.03302319720387459,-1.4185644388198853,-3.75291109085083,8.911218643188477
1713723118630391954,0.049002163112163544,-0.055393751710653305,0.004261057823896408,0.851138710975647,-1.5825673341751099,10.33217716217041
1713723118640391954,0.027696875855326653,0.03195793181657791,-0.007456851191818714,1.6891093254089355,-0.33758243918418884,11.775880813598633
1713723118650391954,-0.01810949482023716,0.0884169489145279,-0.034088462591171265,1.2761094570159912,-0.7541735172271729,11.88002872467041
1713723118660391954,0.004261057823896408,0.0511326938867569,-0.037284255027770996,-0.5219359397888184,-2.586934804916382,10.071208953857422
1713723118669391954,0.04367584362626076,-0.007456851191818714,-0.001065264455974102,-1.3754688501358032,-2.7916390895843506,8.667010307312012
1713723118678391954,0.14274543523788452,-0.03941478580236435,-0.007456851191818714,-0.3974374830722809,-0.6883329749107361,8.483853340148926
1713723118688391954,0.13741911947727203,-0.015978965908288956,-0.024501081556081772,0.37828385829925537,1.0486602783203125,8.938752174377441
1713723118698391954,0.0788295716047287,0.014913702383637428,-0.03302319720387459,0.568622887134552,1.523909330368042,9.05247688293457
1713723118707391954,-0.06391586363315582,0.037284255027770996,-0.022370552644133568,0.3447650372982025,1.3670891523361206,10.066420555114746
1713723118717391954,-0.19174760580062866,0.027696875855326653,-0.041545312851667404,-0.020350713282823563,0.8619126081466675,10.888829231262207
1713723118727391954,-0.22796659171581268,-0.00532632227987051,-0.009587380103766918,-1.0462660789489746,-0.7254431247711182,10.327388763427734
1713723118736391954,-0.12676647305488586,-0.07669904083013535,-0.01810949482023716,-2.007538080215454,-3.3183634281158447,9.175777435302734
1713723118745391954,-0.034088462591171265,-0.06391586363315582,0.04687163606286049,-0.1628057062625885,-3.2405519485473633,9.627084732055664
1713723118755391954,0.06711165606975555,-0.015978965908288956,-0.01810949482023716,1.7417817115783691,-1.6160861253738403,10.673351287841797
1713723118765391954,0.015978965908288956,0.07243797928094864,-0.003195793367922306,1.4891934394836426,-1.258152961730957,11.117475509643555
1713723118774391954,-0.011717909015715122,0.08628641813993454,-0.03834952041506767,0.0694318488240242,-1.1743558645248413,11.796231269836426
1713723118784391954,0.03941478580236435,0.030892668291926384,-0.017044231295585632,-1.48081374168396,-2.051830768585205,9.554061889648438
1713723118793391954,0.08096009492874146,-0.00532632227987051,0.023435818031430244,-0.6823474764823914,-1.3204022645950317,8.433575630187988
1713723118803391954,0.1438107043504715,-0.017044231295585632,-0.02556634694337845,0.45010989904403687,0.16160860657691956,8.267178535461426
1713723118813391954,0.08309062570333481,0.011717909015715122,0.0,0.37229835987091064,0.7757213115692139,8.53293514251709
1713723118822391954,-0.02130528911948204,0.02130528911948204,-0.02876213937997818,0.07900865375995636,1.3623007535934448,10.311826705932617
1713723118832391954,-0.14700649678707123,0.01810949482023716,-0.020240023732185364,-0.13407529890537262,0.9277531504631042,10.566808700561523
1713723118841391954,-0.23435817658901215,-0.00532632227987051,-0.017044231295585632,-0.061052143573760986,-0.36750996112823486,10.952275276184082
1713723118851391954,-0.13848437368869781,-0.07030745595693588,-0.026631610468029976,-1.4077905416488647,-3.138798475265503,9.72285270690918
1713723118860391954,-0.05432848632335663,-0.07456851005554199,0.03195793181657791,-1.0618284940719604,-3.8546645641326904,8.821435928344727
1713723118870391954,0.08628641813993454,-0.03302319720387459,-0.008522115647792816,1.4401123523712158,-1.6400281190872192,9.647435188293457
1713723118880391954,0.06924218684434891,0.0649811327457428,-0.01065264455974102,1.8734627962112427,-0.11611878126859665,11.077971458435059
1713723118889391954,0.02130528911948204,0.1299622654914856,-0.04048004746437073,0.9050082564353943,0.033518824726343155,11.653776168823242
1713723118899391954,-0.019174760207533836,0.1022653877735138,-0.030892668291926384,-1.0307037830352783,-1.139639973640442,10.743980407714844
1713723118908391954,0.011717909015715122,-0.008522115647792816,-0.01065264455974102,-2.388216257095337,-2.1475989818573,9.030928611755371
1713723118918391954,0.055393751710653305,-0.07350324839353561,0.008522115647792816,-1.2773065567016602,-1.0474631786346436,8.273163795471191
1713723118927391954,0.092678003013134,-0.08415588736534119,-0.012783173471689224,0.456095427274704,0.365115761756897,8.808267593383789
1713723118937391954,0.04367584362626076,-0.03834952041506767,-0.022370552644133568,1.0522515773773193,0.5339069962501526,8.862137794494629
1713723118946391954,-0.06072007119655609,0.02130528911948204,-0.02556634694337845,1.0678139925003052,0.6835445761680603,10.070012092590332
1713723118956391954,-0.16831177473068237,0.06178533658385277,-0.044741105288267136,0.606930136680603,0.3387795388698578,11.03367805480957
1713723118966391954,-0.16937704384326935,0.019174760207533836,-0.03834952041506767,-1.4281412363052368,-1.8315643072128296,11.480196952819824
1713723118975391954,-0.06072007119655609,-0.092678003013134,-0.017044231295585632,-3.0406360626220703,-4.514267444610596,10.190918922424316
1713723118985391954,0.05645901337265968,-0.11185276508331299,0.04048004746437073,-0.4967968463897705,-3.022679567337036,9.860519409179688
1713723118995391954,0.17896442115306854,-0.08202536404132843,-0.02876213937997818,2.121262788772583,-0.6799532771110535,9.296685218811035
1713723119004391954,0.12676647305488586,0.029827404767274857,-0.02130528911948204,2.0626046657562256,-0.1999158412218094,9.001001358032227
1713723119014391954,0.04048004746437073,0.1161138266324997,-0.044741105288267136,1.2545616626739502,0.608127236366272,10.483012199401855
1713723119023391954,-0.06391586363315582,0.13528858125209808,-0.034088462591171265,-0.05386953800916672,0.6141127347946167,10.0580415725708
1713723119033391954,-0.13528858125209808,0.06817692518234253,-0.026631610468029976,-1.722628116607666,-0.24061726033687592,10.453083992004395
1713723119043391954,-0.08202536404132843,-0.06391586363315582,-0.017044231295585632,-2.831143379211426,-2.0242974758148193,9.388861656188965
1713723119052391954,-0.03195793181657791,-0.11717908829450607,0.02130528911948204,-1.1994950771331787,-1.8567034006118774,8.5903959274292
1713723119062391954,0.0511326938867569,-0.12463594228029251,-0.020240023732185364,0.9804255962371826,-0.447715699672699,8.738836288452148
1713723119071391954,0.008522115647792816,-0.04261057823896408,-0.02556634694337845,1.5825673341751099,0.1256955862045288,9.38167953491211
1713723119081391954,-0.05432848632335663,0.03515372797846794,-0.03302319720387459,1.50355863571167,0.4513069987297058,11.417947769165039
1713723119091391954,-0.13102751970291138,0.08096009492874146,-0.034088462591171265,0.7338228225708008,-0.5985504388809204,11.94946002960205
1713723119100391954,-0.06817692518234253,0.007456851191818714,-0.037284255027770996,-2.0805611610412598,-3.803189277648926,10.898406028747559
1713723119110391954,0.020240023732185364,-0.07243797928094864,0.026631610468029976,-3.021482467651367,-4.886565685272217,9.198522567749023
1713723119120391954,0.17257283627986908,-0.11078750342130661,0.022370552644133568,0.06344634294509888,-1.4891934394836426,9.218873023986816
1713723119129391954,0.185356006026268,-0.05965480953454971,-0.011717909015715122,1.8926163911819458,1.0510544776916504,9.78989028930664
1713723119138391954,0.13209278881549835,0.02556634694337845,-0.037284255027770996,1.5729905366897583,1.2054805755615234,9.172186851501465
1713723119148391954,-0.004261057823896408,0.08096009492874146,-0.015978965908288956,0.6344634294509888,1.0989385843276978,9.600749015808105
1713723119157391954,-0.10972223430871964,0.08202536404132843,-0.02876213937997818,-0.21667525172233582,0.8619126081466675,10.067618370056152
1713723119167391954,-0.18642127513885498,0.05645901337265968,0.0,-0.7817068696022034,-0.12689268589019775,9.683348655700684
1713723119177391954,-0.1342233121395111,-0.05432848632335663,-0.037284255027770996,-1.9728221893310547,-2.2397756576538086,8.561665534973145
1713723119186391954,-0.07989483326673508,-0.1065264418721199,0.03834952041506767,-1.4293383359909058,-2.454056739807129,8.71728801727295
1713723119196391954,0.009587380103766918,-0.11504855751991272,-0.012783173471689224,0.690727174282074,-0.812831461429596,10.036493301391602
1713723119205391954,-0.04048004746437073,-0.026631610468029976,0.009587380103766918,1.768117904663086,-0.3519476354122162,11.6430025100708
1713723119215391954,-0.08096009492874146,0.05432848632335663,-0.02130528911948204,1.8483237028121948,-1.071405291557312,12.668917655944824
1713723119224391954,-0.01065264455974102,0.044741105288267136,-0.034088462591171265,-0.9253589510917664,-3.9480385780334473,10.959458351135254
1713723119234391954,0.08735168725252151,-0.014913702383637428,0.014913702383637428,-2.694674015045166,-4.953603267669678,9.218873023986816
1713723119243391954,0.2322276532649994,-0.058589544147253036,0.015978965908288956,-0.4118026793003082,-1.4425065517425537,9.133879661560059
1713723119253391954,0.250337153673172,-0.04367584362626076,-0.011717909015715122,1.3563152551651,1.48081374168396,9.368511199951172
1713723119263391954,0.18216021358966827,0.015978965908288956,-0.04261057823896408,0.970848798751831,1.7848773002624512,8.179789543151855
1713723119273391954,0.013848437927663326,0.04580637067556381,-0.009587380103766918,0.07182604819536209,1.9213467836380005,9.275136947631836
1713723119282391954,-0.12463594228029251,0.023435818031430244,-0.027696875855326653,-0.4345476031303406,1.5693992376327515,10.086771965026855
1713723119291391954,-0.2556634545326233,0.013848437927663326,0.026631610468029976,-0.28730419278144836,0.45250412821769714,9.564835548400879
1713723119301391954,-0.2641855776309967,-0.02130528911948204,-0.030892668291926384,-0.690727174282074,-1.0881646871566772,10.219649314880371
1713723119311391954,-0.1342233121395111,-0.09161274135112762,0.004261057823896408,-1.6759411096572876,-3.5230677127838135,8.622716903686523
1713723119321391954,-0.03834952041506767,-0.0884169489145279,0.03195793181657791,0.05267243832349777,-2.9005753993988037,9.404423713684082
1713723119330391954,0.058589544147253036,-0.03621898964047432,-0.009587380103766918,2.2146365642547607,-1.1312602758407593,11.143811225891113
1713723119339391954,-0.00532632227987051,0.06711165606975555,-0.003195793367922306,2.011129379272461,-1.1683703660964966,11.349713325500488
1713723119350391954,-0.03834952041506767,0.10439591109752655,-0.03941478580236435,-0.15682020783424377,-1.425747036933899,12.842497825622559
1713723119359391954,0.06391586363315582,0.015978965908288956,-0.030892668291926384,-2.719813108444214,-3.641580820083618,10.594342231750488
1713723119368391954,0.11398329585790634,-0.05752427875995636,0.029827404767274857,-1.5885528326034546,-3.1675288677215576,9.131484985351562
1713723119378391954,0.2460760921239853,-0.11291802674531937,-0.02130528911948204,0.5542576909065247,-0.7218518257141113,8.136693954467773
1713723119387391954,0.16405072808265686,-0.05006742849946022,-0.007456851191818714,0.9612719416618347,0.6200982332229614,8.222885131835938
1713723119397391954,0.09161274135112762,-0.002130528911948204,-0.05965480953454971,0.7996633648872375,1.8148049116134644,9.348160743713379
1713723119406391954,-0.03834952041506767,0.029827404767274857,0.00532632227987051,0.46567222476005554,1.8124107122421265,9.030928611755371
1713723119416391954,-0.16085493564605713,0.02876213937997818,-0.026631610468029976,0.3280056416988373,1.5526397228240967,9.661800384521484
1713723119426391954,-0.23009711503982544,0.04048004746437073,0.011717909015715122,0.22266075015068054,0.833182156085968,9.120711326599121
1713723119436391954,-0.2269013226032257,0.01810949482023716,-0.023435818031430244,-0.9002197980880737,-0.6548141837120056,9.734824180603027
1713723119445391954,-0.12144014239311218,-0.05965480953454971,-0.006391586735844612,-1.9584569931030273,-3.0621838569641113,10.073603630065918
1713723119455391954,-0.05965480953454971,-0.08096009492874146,0.044741105288267136,-0.1173158809542656,-3.37941575050354,11.287464141845703
1713723119464391954,-0.004261057823896408,-0.047936901450157166,-0.008522115647792816,1.8076221942901611,-2.5007436275482178,12.13022232055664
1713723119474391954,0.020240023732185364,0.014913702383637428,-0.013848437927663326,1.0426747798919678,-3.2956185340881348,11.298237800598145
1713723119483391954,0.1022653877735138,0.026631610468029976,-0.034088462591171265,-0.4944026470184326,-3.622427225112915,10.035296440124512
1713723119493391954,0.18322548270225525,0.034088462591171265,0.011717909015715122,-0.2513911724090576,-1.4628572463989258,9.314641952514648
1713723119502391954,0.2514024078845978,0.022370552644133568,-0.04367584362626076,0.4920084476470947,0.5853822827339172,8.518569946289062
1713723119513391954,0.1896170675754547,0.044741105288267136,-0.009587380103766918,0.22864626348018646,1.1959037780761719,7.621941089630127
1713723119522391954,0.05326322093605995,0.041545312851667404,-0.019174760207533836,-0.013168109580874443,2.2182278633117676,9.010578155517578
1713723119531391954,-0.10333064943552017,0.027696875855326653,-0.009587380103766918,-0.3579331338405609,2.387019157409668,9.625887870788574
1713723119541391954,-0.24820661544799805,0.007456851191818714,0.002130528911948204,-0.5410895943641663,1.4544775485992432,9.59596061706543
1713723119550391954,-0.29827404022216797,-0.034088462591171265,-0.008522115647792816,-0.4752490222454071,-0.21188685297966003,9.850942611694336
1713723119560391954,-0.20240023732185364,-0.1065264418721199,-0.002130528911948204,-1.3443442583084106,-3.074154853820801,9.064447402954102
1713723119570391954,-0.13528858125209808,-0.11398329585790634,0.03515372797846794,-0.5243301391601562,-3.6607344150543213,10.075997352600098
1713723119579391954,-0.03195793181657791,-0.04580637067556381,0.008522115647792816,1.9345149993896484,-2.229001760482788,12.058396339416504
1713723119589391954,-0.007456851191818714,0.052197955548763275,-0.015978965908288956,1.5765818357467651,-2.631227731704712,13.238738059997559
1713723119598391954,0.1022653877735138,0.06072007119655609,-0.04048004746437073,-0.7134720683097839,-4.270058631896973,12.041637420654297
1713723119608391954,0.185356006026268,0.047936901450157166,0.02876213937997818,-0.7697358131408691,-3.4320881366729736,9.548076629638672
1713723119617391954,0.30466562509536743,0.007456851191818714,-0.020240023732185364,0.29209259152412415,-0.8702923059463501,7.682992935180664
1713723119627391954,0.24820661544799805,0.023435818031430244,-0.006391586735844612,0.020350713282823563,1.115697979927063,7.351396083831787
1713723119637391954,0.14913702011108398,0.029827404767274857,-0.024501081556081772,-0.1496376097202301,2.7880477905273438,8.341398239135742
1713723119646391954,-0.03195793181657791,0.02130528911948204,-0.002130528911948204,-0.09217676520347595,3.050212860107422,8.756793022155762
1713723119656391954,-0.23009711503982544,0.00532632227987051,-0.00532632227987051,-0.047884032130241394,2.316390037536621,9.782708168029785
1713723119665391954,-0.35899412631988525,0.0,0.006391586735844612,-0.08738835901021957,0.8858546018600464,9.923965454101562
1713723119676391954,-0.3057308793067932,-0.06817692518234253,-0.013848437927663326,-1.546654224395752,-2.231395959854126,10.018536567687988
1713723119684391954,-0.1533980816602707,-0.14700649678707123,0.022370552644133568,-2.1380221843719482,-5.052962779998779,10.295066833496094
1713723119695130025,0.03515372797846794,-0.08735168725252151,0.06924218684434891,1.4161702394485474,-4.031835556030273,11.161767959594727
1713723119705130025,0.0884169489145279,0.009587380103766918,-0.049002163112163544,3.4823663234710693,-1.8698714971542358,12.114660263061523
1713723119714130025,0.06178533658385277,0.15446333587169647,0.007456851191818714,2.2218191623687744,-1.3287819623947144,11.470620155334473
1713723119724130025,0.05752427875995636,0.1715075671672821,-0.06285060197114944,-0.35673603415489197,-2.117671251296997,10.733205795288086
1713723119733130025,0.11717908829450607,0.08628641813993454,0.007456851191818714,-2.5306711196899414,-2.7293899059295654,8.433575630187988
1713723119744130025,0.1672465205192566,-0.003195793367922306,0.01065264455974102,-1.643619418144226,-0.7326257228851318,7.8960771560668945
1713723119753130025,0.16511598229408264,-0.055393751710653305,0.007456851191818714,-0.2825157940387726,1.2904746532440186,8.845377922058105
1713723119762130025,0.06391586363315582,-0.0511326938867569,0.008522115647792816,0.17717091739177704,1.4640543460845947,8.589198112487793
1713723119772130025,-0.08628641813993454,-0.022370552644133568,0.0,0.46806642413139343,1.4867992401123047,9.888052940368652
1713723119781130025,-0.20985709130764008,0.014913702383637428,0.008522115647792816,0.5674257874488831,0.9876081943511963,10.338162422180176
1713723119791130025,-0.26631611585617065,0.029827404767274857,-0.006391586735844612,0.3998316824436188,-0.477643221616745,10.613495826721191
1713723119800130025,-0.1299622654914856,-0.041545312851667404,-0.020240023732185364,-1.7393875122070312,-3.7277719974517822,9.349357604980469
1713723119810130025,-0.04261057823896408,-0.06924218684434891,0.05752427875995636,-1.4712369441986084,-4.02345609664917,9.192537307739258
1713723119820130025,0.09374327212572098,-0.0649811327457428,0.002130528911948204,1.3311761617660522,-1.4496891498565674,10.47702693939209
1713723119830130025,0.02876213937997818,0.03621898964047432,0.030892668291926384,2.006340980529785,-0.37229835987091064,11.66455078125
1713723119839130025,-0.023435818031430244,0.1203748807311058,-0.023435818031430244,1.4437036514282227,-0.4644751250743866,12.018892288208008
1713723119848130025,0.01065264455974102,0.09587380290031433,-0.00532632227987051,-1.015141487121582,-2.5522189140319824,10.019734382629395
1713723119858130025,0.06604639440774918,0.00532632227987051,0.013848437927663326,-2.3080103397369385,-3.2345664501190186,8.517372131347656
1713723119867130025,0.1672465205192566,-0.05645901337265968,0.034088462591171265,-0.8463503122329712,-0.7601590156555176,8.672995567321777
1713723119877130025,0.16085493564605713,-0.052197955548763275,0.007456851191818714,0.606930136680603,1.2413935661315918,9.345766067504883
1713723119887130025,0.08522115647792816,0.003195793367922306,-0.009587380103766918,1.037886381149292,1.359906554222107,8.793902397155762
1713723119897130025,-0.06072007119655609,0.047936901450157166,0.008522115647792816,0.7015010714530945,1.159990668296814,9.649829864501953
1713723119906130025,-0.1576591432094574,0.06817692518234253,-0.00532632227987051,0.24899697303771973,0.7038952708244324,9.872490882873535
1713723119915130025,-0.23329290747642517,0.0788295716047287,0.023435818031430244,-0.09576806426048279,-0.2621650695800781,9.651026725769043
1713723119925130025,-0.14913702011108398,-0.01065264455974102,-0.03621898964047432,-1.580173134803772,-2.588131904602051,9.294290542602539
1713723119934130025,-0.09480853378772736,-0.07243797928094864,0.05965480953454971,-1.665167212486267,-3.35786771774292,9.503783226013184
1713723119944130025,-0.007456851191818714,-0.08948221057653427,0.014913702383637428,0.5614402890205383,-1.6041151285171509,11.535264015197754
1713723119954130025,-0.05006742849946022,0.007456851191818714,0.03195793181657791,1.7585411071777344,-1.0809820890426636,12.72757625579834
1713723119963130025,0.006391586735844612,0.044741105288267136,-0.034088462591171265,0.4908113479614258,-2.919728994369507,11.93629264831543
1713723119973130025,0.09906959533691406,0.023435818031430244,0.008522115647792816,-1.4640543460845947,-4.616020679473877,9.313444137573242
1713723119982130025,0.22370553016662598,0.002130528911948204,0.03195793181657791,-0.36152446269989014,-2.12485408782959,8.971073150634766
1713723119992130025,0.2865561246871948,0.002130528911948204,-0.013848437927663326,1.1121066808700562,0.7086836695671082,8.677783966064453
1713723120002130025,0.2045307755470276,0.06072007119655609,-0.007456851191818714,0.7589619159698486,1.4125789403915405,7.882908821105957
1713723120011130025,0.03515372797846794,0.07776430249214172,-0.015978965908288956,0.0694318488240242,2.116474151611328,9.464279174804688
1713723120021130025,-0.1438107043504715,0.058589544147253036,0.002130528911948204,-0.6045359373092651,1.8926163911819458,10.090362548828125
1713723120030130025,-0.29507824778556824,0.026631610468029976,0.02130528911948204,-0.7206547260284424,0.8427590131759644,9.835380554199219
1713723120040130025,-0.2684466242790222,-0.049002163112163544,-0.01065264455974102,-1.5119383335113525,-1.2904746532440186,9.431957244873047
1713723120050130025,-0.15233281254768372,-0.1161138266324997,0.03834952041506767,-1.5071499347686768,-3.272873640060425,8.489839553833008
1713723120059130025,-0.02556634694337845,-0.09054747968912125,0.03834952041506767,1.1528080701828003,-2.3056161403656006,10.254365921020508
1713723120069130025,0.009587380103766918,0.013848437927663326,0.009587380103766918,2.5737667083740234,-1.3120225667953491,12.283452033996582
1713723120078130025,-0.029827404767274857,0.1203748807311058,-0.011717909015715122,1.6555904150009155,-2.2589292526245117,12.855666160583496
1713723120088130025,0.06604639440774918,0.08628641813993454,-0.03302319720387459,-1.8399440050125122,-4.835090160369873,11.280281066894531
1713723120097130025,0.14274543523788452,0.017044231295585632,0.027696875855326653,-2.6156651973724365,-4.723759651184082,8.857349395751953
1713723120107130025,0.2929477095603943,-0.04580637067556381,0.017044231295585632,0.21667525172233582,-0.9014168977737427,7.978676795959473
1713723120117130025,0.24501082301139832,-0.026631610468029976,-0.014913702383637428,0.7876923680305481,2.005143880844116,8.71728801727295
1713723120126130025,0.15872439742088318,0.017044231295585632,-0.024501081556081772,0.395043283700943,2.847902774810791,9.120711326599121
1713723120136130025,-0.03941478580236435,0.034088462591171265,0.007456851191818714,-0.02274491637945175,2.4815900325775146,9.640253067016602
1713723120146130025,-0.20559602975845337,0.020240023732185364,-0.01065264455974102,-0.09696516394615173,1.7729063034057617,10.114304542541504
1713723120155130025,-0.3067961633205414,0.02876213937997818,0.034088462591171265,0.11971008032560349,0.34835633635520935,9.068038940429688
1713723120164130025,-0.24820661544799805,-0.013848437927663326,-0.03515372797846794,-1.1180921792984009,-2.1368250846862793,9.199719429016113
1713723120174130025,-0.11185276508331299,-0.07350324839353561,0.02556634694337845,-1.9572598934173584,-4.209006309509277,8.944737434387207
1713723120184130025,0.007456851191818714,-0.07137271761894226,0.029827404767274857,0.3890577554702759,-2.7078421115875244,10.76073932647705
1713723120193130025,0.049002163112163544,-0.006391586735844612,0.001065264455974102,2.1140799522399902,-1.092953085899353,12.342109680175781
1713723120203130025,-0.002130528911948204,0.09054747968912125,-0.01065264455974102,1.6184803247451782,-1.6148890256881714,11.275492668151855
1713723120212130025,0.011717909015715122,0.10013485699892044,-0.03515372797846794,-0.4884171485900879,-2.762908697128296,10.667365074157715
1713723120223130025,0.08202536404132843,0.022370552644133568,-0.003195793367922306,-2.0638017654418945,-3.199850559234619,9.005789756774902
1713723120231130025,0.1672465205192566,-0.03941478580236435,0.024501081556081772,-0.8619126081466675,-0.8822633028030396,8.549694061279297
1713723120241130025,0.1906823366880417,-0.05006742849946022,-0.017044231295585632,0.3734954595565796,1.138442873954773,8.983044624328613
1713723120251130025,0.09693906456232071,-0.007456851191818714,-0.002130528911948204,0.606930136680603,1.2952630519866943,9.050082206726074
1713723120261130025,-0.06391586363315582,0.023435818031430244,-0.015978965908288956,0.6057330369949341,1.260547161102295,10.418368339538574
1713723120270130025,-0.1906823366880417,0.04048004746437073,-0.008522115647792816,0.3519476354122162,0.6847416758537292,10.323797225952148
1713723120280130025,-0.23968449234962463,0.037284255027770996,0.0,-0.18076223134994507,-0.6787561774253845,10.291476249694824
1713723120290130025,-0.11504855751991272,-0.03515372797846794,-0.02556634694337845,-1.8567034006118774,-3.248931646347046,8.790311813354492
1713723120299130025,-0.03941478580236435,-0.0511326938867569,0.058589544147253036,-1.0199298858642578,-3.1423897743225098,8.705317497253418
1713723120308130025,0.07776430249214172,-0.037284255027770996,-0.01065264455974102,1.2258312702178955,-1.0785878896713257,9.996989250183105
1713723120318130025,0.012783173471689224,0.05645901337265968,0.020240023732185364,1.4209586381912231,-0.3603273630142212,10.896011352539062
1713723120327130025,-0.06072007119655609,0.1065264418721199,-0.019174760207533836,0.8463503122329712,-0.31842881441116333,12.764686584472656
1713723120337130025,-0.027696875855326653,0.04261057823896408,-0.01810949482023716,-1.7537527084350586,-2.84909987449646,11.184513092041016
1713723120347130025,0.02556634694337845,-0.05752427875995636,0.023435818031430244,-2.7760767936706543,-4.241328239440918,8.63708209991455
1713723120356130025,0.15978966653347015,-0.09906959533691406,0.03302319720387459,-0.061052143573760986,-1.4772224426269531,8.518569946289062
1713723120366130025,0.1906823366880417,-0.044741105288267136,-0.004261057823896408,1.7286136150360107,0.9457096457481384,9.162610054016113
1713723120375130025,0.14594122767448425,0.04261057823896408,-0.026631610468029976,1.2473790645599365,1.1300631761550903,8.92917537689209
1713723120385130025,0.006391586735844612,0.09480853378772736,0.004261057823896408,0.4189852774143219,1.1085153818130493,9.987412452697754
1713723120394130025,-0.13315805792808533,0.08948221057653427,-0.01810949482023716,-0.25977087020874023,0.9433154463768005,10.759542465209961
1713723120404130025,-0.22157500684261322,0.058589544147253036,0.008522115647792816,-0.7996633648872375,-0.2346317619085312,10.147823333740234
1713723120414130025,-0.15872439742088318,-0.07243797928094864,-0.030892668291926384,-2.2194249629974365,-3.1016881465911865,8.541314125061035
1713723120423130025,-0.0788295716047287,-0.11398329585790634,0.06178533658385277,-1.5837644338607788,-3.384204149246216,8.69454288482666
1713723120433130025,0.0511326938867569,-0.1022653877735138,0.002130528911948204,0.9193734526634216,-1.0977414846420288,9.671377182006836
1713723120442130025,0.01810949482023716,0.017044231295585632,0.02130528911948204,1.7729063034057617,-0.0933738648891449,11.003750801086426
1713723120452130025,-0.03621898964047432,0.10865697264671326,-0.019174760207533836,1.5310919284820557,-0.22625206410884857,12.300210952758789
1713723120461130025,-0.041545312851667404,0.08948221057653427,-0.017044231295585632,-0.8056488633155823,-2.4420857429504395,11.500547409057617
1713723120471130025,0.03621898964047432,-0.02876213937997818,0.007456851191818714,-2.7461493015289307,-4.3610382080078125,9.673771858215332
1713723120481130025,0.14700649678707123,-0.06924218684434891,0.06072007119655609,-0.8990226984024048,-2.115277051925659,9.206902503967285
1713723120490130025,0.23542344570159912,-0.04687163606286049,-0.003195793367922306,1.3215993642807007,0.30047231912612915,8.83939266204834
1713723120500130025,0.17363810539245605,0.04367584362626076,-0.001065264455974102,1.3706804513931274,0.5650315880775452,8.101978302001953
1713723120509130025,0.04261057823896408,0.08735168725252151,-0.009587380103766918,0.40222588181495667,1.2701239585876465,9.685742378234863
1713723120519130025,-0.10013485699892044,0.07563377171754837,-0.004261057823896408,-0.606930136680603,1.2270283699035645,10.134655952453613
1713723120529130025,-0.2322276532649994,0.037284255027770996,0.02130528911948204,-0.8894459009170532,0.47405192255973816,9.864110946655273
1713723120538130025,-0.21944446861743927,-0.05752427875995636,-0.01065264455974102,-1.5729905366897583,-1.45806884765625,9.477447509765625
1713723120548130025,-0.12250541150569916,-0.1203748807311058,0.05326322093605995,-1.6735469102859497,-3.1531636714935303,8.803479194641113
1713723120557130025,0.002130528911948204,-0.092678003013134,0.04367584362626076,0.6596025824546814,-1.86508309841156,9.854534149169922
1713723120567130025,0.06072007119655609,0.009587380103766918,0.02130528911948204,2.050633668899536,-0.6775590777397156,11.324573516845703
1713723120577130025,0.011717909015715122,0.1065264418721199,-0.002130528911948204,1.4867992401123047,-1.2737152576446533,11.63103199005127
1713723120586130025,-0.014913702383637428,0.08628641813993454,-0.014913702383637428,-0.44173020124435425,-2.6575639247894287,11.883620262145996
1713723120596130025,0.04367584362626076,-0.023435818031430244,0.004261057823896408,-1.987187385559082,-3.971980571746826,10.324995040893555
1713723120605130025,0.12144014239311218,-0.05965480953454971,0.05645901337265968,-0.3711012601852417,-2.270900249481201,9.634267807006836
1713723120615130025,0.22157500684261322,-0.02556634694337845,-0.013848437927663326,1.1049240827560425,-0.304063618183136,8.646658897399902
1713723120624130025,0.18855179846286774,0.07456851005554199,0.003195793367922306,0.9852139949798584,0.1999158412218094,7.456740856170654
1713723120634130025,0.092678003013134,0.11717908829450607,-0.017044231295585632,0.2968810200691223,1.423352837562561,9.129091262817383
1713723120644130025,-0.03302319720387459,0.09693906456232071,-0.011717909015715122,-0.8930371999740601,1.7920598983764648,9.815030097961426
1713723120653130025,-0.17363810539245605,0.02876213937997818,0.006391586735844612,-1.6089035272598267,1.071405291557312,9.858125686645508
1713723120663130025,-0.22903186082839966,-0.06604639440774918,0.009587380103766918,-2.0207061767578125,-0.2609679698944092,10.043676376342773
1713723120673130025,-0.15978966653347015,-0.15233281254768372,0.037284255027770996,-1.9979612827301025,-2.432508945465088,9.305065155029297
1713723120682130025,-0.08628641813993454,-0.13635385036468506,0.0511326938867569,0.24181437492370605,-2.630030632019043,9.849745750427246
1713723120692130025,0.00532632227987051,-0.047936901450157166,0.012783173471689224,2.321178436279297,-1.7513585090637207,10.970232009887695
1713723120701130025,-0.00532632227987051,0.05965480953454971,0.001065264455974102,1.944091796875,-2.1523873805999756,12.237961769104004
1713723120711130025,0.06924218684434891,0.05752427875995636,-0.034088462591171265,-0.3770867586135864,-3.755305290222168,11.933897972106934
1713723120720130025,0.12463594228029251,0.030892668291926384,0.03195793181657791,-1.1480196714401245,-3.8989574909210205,9.697713851928711
1713723120730130025,0.2322276532649994,0.009587380103766918,0.012783173471689224,0.3519476354122162,-1.3970166444778442,8.683769226074219
1713723120739130025,0.22477079927921295,0.047936901450157166,-0.001065264455974102,0.5123591423034668,0.7625532150268555,8.450334548950195
1713723120749130025,0.17470337450504303,0.0649811327457428,-0.006391586735844612,-0.24181437492370605,1.8028337955474854,8.273163795471191
1713723120759130025,0.04367584362626076,0.04367584362626076,0.003195793367922306,-0.9145850539207458,2.0386626720428467,8.540117263793945
1713723120768130025,-0.1203748807311058,-0.004261057823896408,-0.002130528911948204,-1.0785878896713257,1.9273322820663452,9.77672290802002
1713723120778130025,-0.2460760921239853,-0.0511326938867569,0.01065264455974102,-0.7481880187988281,1.094150185585022,10.160991668701172
1713723120788130025,-0.2641855776309967,-0.08735168725252151,0.014913702383637428,-0.7445967197418213,-0.729034423828125,10.121487617492676
1713723120797130025,-0.15446333587169647,-0.11930961906909943,0.015978965908288956,-1.278503656387329,-3.3746273517608643,9.481039047241211
1713723120806130025,-0.06072007119655609,-0.08309062570333481,0.049002163112163544,0.0802057534456253,-3.8331167697906494,10.398017883300781
1713723120816130025,0.029827404767274857,-0.013848437927663326,0.009587380103766918,2.1308395862579346,-2.535459518432617,12.09311294555664
1713723120826130025,0.05006742849946022,0.04367584362626076,-0.01065264455974102,1.42454993724823,-2.802412986755371,12.09550666809082
1713723120835130025,0.11078750342130661,0.049002163112163544,-0.01065264455974102,-0.42377370595932007,-3.3925838470458984,10.589553833007812
1713723120845130025,0.17470337450504303,0.047936901450157166,0.03195793181657791,-0.4273650050163269,-1.7106571197509766,9.23443603515625
1713723120854130025,0.24714134633541107,0.04261057823896408,-0.015978965908288956,-0.010773907415568829,0.2190694510936737,8.069656372070312
1713723120864130025,0.1896170675754547,0.05752427875995636,0.004261057823896408,-0.5303156971931458,1.0319008827209473,7.64229154586792
1713723120874130025,0.0649811327457428,0.022370552644133568,0.0,-0.8750807046890259,2.033874273300171,9.297882080078125
1713723120883130025,-0.09374327212572098,-0.03302319720387459,0.020240023732185364,-0.9457096457481384,1.9500772953033447,10.213664054870605
1713723120893130025,-0.23435817658901215,-0.07243797928094864,0.027696875855326653,-0.4967968463897705,0.7553706169128418,9.983820915222168
1713723120903130025,-0.2727077007293701,-0.08096009492874146,0.02556634694337845,-0.03950432687997818,-0.811634361743927,10.310629844665527
1713723120912130025,-0.13528858125209808,-0.09587380290031433,0.013848437927663326,-0.9911994934082031,-3.4536359310150146,9.424775123596191
1713723120921130025,-0.030892668291926384,-0.052197955548763275,0.0511326938867569,-0.27413609623908997,-3.88818359375,9.29309368133545
1713723120931130025,0.08202536404132843,0.003195793367922306,0.006391586735844612,1.665167212486267,-1.9572598934173584,11.320982933044434
1713723120940130025,0.037284255027770996,0.07350324839353561,0.01065264455974102,1.4616601467132568,-1.315613865852356,12.411540985107422
1713723120950130025,0.06072007119655609,0.04261057823896408,-0.026631610468029976,-0.6739677786827087,-2.3930046558380127,11.355698585510254
1713723120960130025,0.08628641813993454,-0.008522115647792816,0.037284255027770996,-1.7178397178649902,-2.762908697128296,8.965087890625
1713723120969130025,0.1810949593782425,-0.05006742849946022,0.020240023732185364,-0.19632454216480255,-0.7709329128265381,7.921216011047363
1713723120980130025,0.18216021358966827,-0.020240023732185364,0.020240023732185364,0.6655880808830261,1.1025298833847046,8.455122947692871
1713723120989130025,0.11824434995651245,0.02130528911948204,0.00532632227987051,0.5207388401031494,1.703474521636963,9.197325706481934
1713723120998130025,-0.029827404767274857,0.0511326938867569,0.024501081556081772,0.12689268589019775,1.522712230682373,9.822212219238281
1713723121008130025,-0.18322548270225525,0.044741105288267136,0.01065264455974102,-0.31124621629714966,1.0414776802062988,10.467449188232422
1713723121017130025,-0.23329290747642517,-0.003195793367922306,0.026631610468029976,-1.3108254671096802,-0.47644612193107605,10.589553833007812
1713723121027130025,-0.13102751970291138,-0.1065264418721199,0.020240023732185364,-2.3259668350219727,-3.2321722507476807,8.767566680908203
1713723121036130025,-0.041545312851667404,-0.11504855751991272,0.07563377171754837,-0.4537012279033661,-3.110067844390869,8.820239067077637
1713723121047130025,0.06072007119655609,-0.06817692518234253,0.009587380103766918,1.8579005002975464,-1.4401123523712158,10.589553833007812
1713723121056130025,-0.003195793367922306,0.04367584362626076,0.02130528911948204,2.054224967956543,-1.237802267074585,12.066776275634766
1713723121065130025,-0.03515372797846794,0.07350324839353561,-0.013848437927663326,0.34835633635520935,-1.8758569955825806,13.481749534606934
1713723121075130025,0.06072007119655609,0.001065264455974102,-0.008522115647792816,-2.0865466594696045,-4.266467571258545,10.307038307189941
1713723121084130025,0.14913702011108398,-0.024501081556081772,0.07350324839353561,-0.7086836695671082,-3.1878795623779297,8.367734909057617
1713723121094130025,0.31318774819374084,-0.029827404767274857,-0.007456851191818714,1.1959037780761719,-0.4082113802433014,7.2340803146362305
1713723121104130025,0.22903186082839966,0.049002163112163544,0.02876213937997818,0.7230489253997803,1.182735562324524,7.885303020477295
1713723121113130025,0.09800432622432709,0.07137271761894226,-0.019174760207533836,-0.008379706181585789,2.778470993041992,10.3549222946167
1713723121123130025,-0.10865697264671326,0.05326322093605995,0.03195793181657791,-0.6356605291366577,2.4612393379211426,10.334571838378906
1713723121133130025,-0.2865561246871948,-0.002130528911948204,0.012783173471689224,-0.7026981711387634,1.304839849472046,10.158597946166992
1713723121142130025,-0.28016453981399536,-0.07243797928094864,0.020240023732185364,-1.3335703611373901,-1.0283095836639404,9.21288776397705
1713723121152130025,-0.14594122767448425,-0.1438107043504715,0.030892668291926384,-1.5346832275390625,-3.4799721240997314,8.29710578918457
1713723121161130025,0.006391586735844612,-0.09906959533691406,0.05432848632335663,1.0007762908935547,-2.649184226989746,9.617507934570312
1713723121171130025,0.07776430249214172,0.002130528911948204,0.001065264455974102,2.676717519760132,-1.1887211799621582,11.568782806396484
1713723121180130025,0.01810949482023716,0.1161138266324997,-0.008522115647792816,1.9752163887023926,-1.544260025024414,12.215216636657715
1713723121190130025,-0.007456851191818714,0.10865697264671326,-0.022370552644133568,-0.7445967197418213,-2.8598737716674805,12.81855583190918
1713723121200130025,0.09054747968912125,0.006391586735844612,-0.006391586735844612,-2.8335375785827637,-4.195838451385498,9.41639518737793
1713723121209130025,0.19174760580062866,-0.03834952041506767,0.06178533658385277,-0.9277531504631042,-1.8076221942901611,8.007407188415527
1713723121219130025,0.3004045784473419,-0.055393751710653305,-0.029827404767274857,0.7170634269714355,0.7924807667732239,8.063671112060547
1713723121228130025,0.20666129887104034,0.002130528911948204,0.0,0.5506663918495178,1.2653355598449707,7.861361026763916
1713723121238130025,0.03195793181657791,0.009587380103766918,-0.03302319720387459,0.1364694982767105,2.0602104663848877,10.541669845581055
1713723121247130025,-0.15233281254768372,-0.002130528911948204,0.006391586735844612,-0.10175357013940811,1.644816517829895,10.540472984313965
1713723121257130025,-0.30466562509536743,-0.007456851191818714,0.007456851191818714,0.1604115068912506,0.5327098965644836,9.841365814208984
1713723121267130025,-0.260989785194397,-0.019174760207533836,-0.015978965908288956,-0.5267243385314941,-1.1312602758407593,9.175777435302734
1713723121276130025,-0.09800432622432709,-0.06178533658385277,0.0,-1.425747036933899,-3.4979286193847656,8.188169479370117
1713723121286130025,0.03195793181657791,-0.04048004746437073,0.024501081556081772,0.33518823981285095,-2.668337821960449,10.313023567199707
1713723121295130025,0.09054747968912125,0.004261057823896408,-0.017044231295585632,1.8387469053268433,-1.0486602783203125,12.485761642456055
1713723121305130025,-0.003195793367922306,0.06711165606975555,-0.022370552644133568,1.2006921768188477,-1.890222191810608,12.348094940185547
1713723121314130025,0.012783173471689224,0.015978965908288956,-0.04687163606286049,-1.1863269805908203,-3.7481226921081543,11.298237800598145
1713723121324130025,0.10333064943552017,-0.03834952041506767,0.00532632227987051,-2.410961151123047,-4.080916881561279,8.549694061279297
1713723121334130025,0.26738137006759644,-0.06178533658385277,0.017044231295585632,-0.2454056739807129,-0.8451532125473022,7.728482723236084
1713723121343130025,0.30360037088394165,-0.030892668291926384,-0.03515372797846794,0.9074024558067322,1.9021931886672974,8.574832916259766
1713723121353130025,0.20666129887104034,0.01810949482023716,-0.01810949482023716,0.39863458275794983,2.4217350482940674,9.194931030273438
1713723121362130025,-0.007456851191818714,0.029827404767274857,-0.006391586735844612,0.038307227194309235,2.3523030281066895,10.779892921447754
1713723121372130025,-0.20559602975845337,0.011717909015715122,-0.01065264455974102,-0.035913024097681046,1.4676456451416016,10.474632263183594
1713723121382130025,-0.3206445872783661,0.009587380103766918,0.020240023732185364,0.19153612852096558,-0.019153613597154617,8.753201484680176
1713723121391130025,-0.23116238415241241,-0.04048004746437073,-0.041545312851667404,-0.7577648162841797,-2.408566951751709,7.892485618591309
1713723121401130025,-0.09693906456232071,-0.07669904083013535,0.01810949482023716,-1.3455413579940796,-3.671508312225342,8.483853340148926
1713723121410130025,0.03302319720387459,-0.06391586363315582,-0.00532632227987051,0.4884171485900879,-1.8136078119277954,11.349713325500488
1713723121420130025,0.022370552644133568,0.004261057823896408,-0.017044231295585632,1.7274165153503418,-0.727837324142456,13.528436660766602
1713723121429130025,-0.02876213937997818,0.05006742849946022,-0.037284255027770996,0.970848798751831,-2.164358377456665,13.682862281799316
1713723121439130025,0.06072007119655609,0.007456851191818714,-0.041545312851667404,-1.8734627962112427,-5.024232387542725,10.442310333251953
1713723121449130025,0.15659387409687042,-0.013848437927663326,0.023435818031430244,-1.6567875146865845,-4.255693435668945,7.911639213562012
1713723121459130025,0.3398193418979645,-0.037284255027770996,-0.020240023732185364,0.7541735172271729,-0.6883329749107361,7.079654216766357
1713723121468130025,0.27164241671562195,0.011717909015715122,-0.020240023732185364,0.6500257253646851,1.8195933103561401,8.259995460510254
1713723121477130025,0.13848437368869781,0.029827404767274857,-0.044741105288267136,0.1388636976480484,3.314772129058838,10.368090629577637
1713723121487130025,-0.08628641813993454,0.01810949482023716,0.0,-0.27413609623908997,2.8407201766967773,10.169371604919434
1713723121496130025,-0.27164241671562195,-0.01810949482023716,-0.01810949482023716,-0.152031809091568,1.7621324062347412,9.636661529541016
1713723121506130025,-0.3206445872783661,-0.017044231295585632,0.01810949482023716,0.1628057062625885,0.13766659796237946,8.820239067077637
1713723121516130025,-0.18429075181484222,-0.06178533658385277,-0.04261057823896408,-0.8583213090896606,-2.87064790725708,8.015787124633789
1713723121526130025,-0.0788295716047287,-0.06072007119655609,0.03195793181657791,-0.8774749040603638,-3.640383720397949,9.069235801696777
1713723121535130025,0.026631610468029976,-0.04048004746437073,-0.017044231295585632,0.6584054827690125,-1.7968482971191406,12.108675003051758
1713723121544130025,-0.024501081556081772,0.02556634694337845,-0.00532632227987051,1.4161702394485474,-1.4652514457702637,14.371195793151855
1713723121554130025,0.02556634694337845,-0.00532632227987051,-0.04687163606286049,-0.2346317619085312,-3.9157168865203857,12.90833854675293
1713723121563130025,0.10546118021011353,-0.022370552644133568,0.023435818031430244,-1.5286977291107178,-5.2229509353637695,8.704119682312012
1713723121573130025,0.27696874737739563,-0.007456851191818714,0.006391586735844612,0.39624038338661194,-1.9943699836730957,7.383718013763428
1713723121583130025,0.34088462591171265,0.052197955548763275,-0.023435818031430244,1.2401964664459229,1.314416766166687,8.075642585754395
1713723121592130025,0.27164241671562195,0.09800432622432709,-0.026631610468029976,0.1759738177061081,2.4899697303771973,8.53652572631836
1713723121602130025,0.0511326938867569,0.08096009492874146,-0.013848437927663326,-0.93254154920578,3.0310592651367188,10.194510459899902
1713723121612130025,-0.18216021358966827,0.012783173471689224,-0.004261057823896408,-1.2952630519866943,2.4815900325775146,10.862492561340332
1713723121622130025,-0.34514567255973816,-0.05645901337265968,0.02130528911948204,-1.0247182846069336,0.7841010689735413,9.436745643615723
1713723121631130025,-0.2737729549407959,-0.14487595856189728,-0.00532632227987051,-1.40180504322052,-2.3774423599243164,7.886500358581543
1713723121640130025,-0.13315805792808533,-0.1619201898574829,0.04687163606286049,-0.8427590131759644,-3.9851486682891846,8.069656372070312
1713723121650130025,0.04367584362626076,-0.10013485699892044,0.019174760207533836,1.5897499322891235,-1.98958158493042,10.573991775512695
1713723121659130025,0.05326322093605995,0.026631610468029976,-0.004261057823896408,2.6408045291900635,-0.6368576288223267,12.969390869140625
1713723121669130025,-0.002130528911948204,0.1203748807311058,-0.02876213937997818,1.8602946996688843,-1.5646108388900757,13.788207054138184
1713723121679130025,0.04048004746437073,0.05645901337265968,-0.03515372797846794,-1.3215993642807007,-4.511873245239258,11.41675090789795
1713723121688130025,0.12783172726631165,-0.011717909015715122,0.019174760207533836,-2.627636432647705,-4.944026470184326,8.11514663696289
1713723121698130025,0.3004045784473419,-0.04261057823896408,0.022370552644133568,-0.2669534981250763,-0.9852139949798584,7.3885064125061035
1713723121707130025,0.3067961633205414,-0.02130528911948204,-0.02130528911948204,0.6560112833976746,2.2864625453948975,8.494627952575684
1713723121717130025,0.21092236042022705,0.013848437927663326,-0.020240023732185364,0.19273322820663452,3.092111349105835,9.11113452911377
1713723121726130025,-0.02130528911948204,0.012783173471689224,0.002130528911948204,-0.2454056739807129,2.9448680877685547,10.38844108581543
1713723121736130025,-0.22477079927921295,-0.01810949482023716,-0.006391586735844612,-0.21787235140800476,1.9225438833236694,10.427945137023926
1713723121746130025,-0.3515372574329376,-0.014913702383637428,0.04367584362626076,0.16998831927776337,0.21188685297966003,9.135076522827148
1713723121755130025,-0.2727077007293701,-0.014913702383637428,-0.017044231295585632,-0.5578489899635315,-1.9931728839874268,8.632293701171875
1713723121765130025,-0.1065264418721199,-0.05006742849946022,0.023435818031430244,-1.3934253454208374,-4.158728122711182,7.95832633972168
1713723121774130025,0.015978965908288956,-0.04048004746437073,0.034088462591171265,0.2849099934101105,-2.761711597442627,10.973823547363281
1713723121784130025,0.05645901337265968,0.0,-0.003195793367922306,1.7776947021484375,-1.0474631786346436,13.498509407043457
1713723121793130025,-0.029827404767274857,0.03515372797846794,-0.006391586735844612,1.3910311460494995,-2.0003554821014404,13.087903022766113
1713723121803130025,0.030892668291926384,-0.007456851191818714,-0.03302319720387459,-1.0211269855499268,-4.241328239440918,10.878055572509766
1713723121812130025,0.11824434995651245,-0.023435818031430244,0.02556634694337845,-1.3718775510787964,-4.090493679046631,8.04930591583252
1713723121823130025,0.30786141753196716,-0.026631610468029976,-0.004261057823896408,0.5793967843055725,-0.6943184733390808,7.043741226196289
1713723121832130025,0.2886866629123688,0.03515372797846794,-0.019174760207533836,0.652419924736023,2.0003554821014404,8.271966934204102
1713723121841130025,0.16831177473068237,0.06817692518234253,-0.023435818031430244,0.11252747476100922,3.2166099548339844,10.315418243408203
1713723121851130025,-0.058589544147253036,0.055393751710653305,0.007456851191818714,-0.5003881454467773,2.8634650707244873,10.739192008972168
1713723121860130025,-0.2631203234195709,0.006391586735844612,0.00532632227987051,-0.6380547285079956,1.6711527109146118,9.967061042785645
1713723121870130025,-0.33555829524993896,-0.029827404767274857,0.037284255027770996,-0.3423708379268646,-0.18315643072128296,9.062053680419922
1713723121879130025,-0.19281286001205444,-0.10333064943552017,-0.009587380103766918,-1.6112977266311646,-3.4308910369873047,7.7883381843566895
1713723121889130025,-0.0788295716047287,-0.09374327212572098,0.06924218684434891,-0.9361328482627869,-3.8546645641326904,8.925583839416504
1713723121899130025,0.052197955548763275,-0.0511326938867569,-0.001065264455974102,1.4915876388549805,-1.6304513216018677,11.475408554077148
1713723121909130025,-0.006391586735844612,0.05752427875995636,0.01810949482023716,1.9129670858383179,-0.9528922438621521,13.129801750183105
1713723121918130025,-0.013848437927663326,0.06072007119655609,-0.030892668291926384,0.25737667083740234,-2.191891670227051,13.819332122802734
1713723121927130025,0.07669904083013535,-0.014913702383637428,0.002130528911948204,-1.965639591217041,-4.503493309020996,10.034099578857422
1713723121937130025,0.1949433982372284,-0.034088462591171265,0.04687163606286049,-0.47644612193107605,-2.7329812049865723,7.879317760467529
1713723121947130025,0.3398193418979645,-0.02556634694337845,-0.02876213937997818,1.2761094570159912,0.13168108463287354,7.316680431365967
1713723121956130025,0.26738137006759644,0.029827404767274857,-0.008522115647792816,0.7565677165985107,1.1887211799621582,7.708132266998291
1713723121966130025,0.09693906456232071,0.03621898964047432,-0.027696875855326653,0.08140285313129425,2.6120738983154297,10.342950820922852
1713723121975130025,-0.12357067316770554,0.01810949482023716,0.006391586735844612,-0.19033902883529663,2.585737705230713,10.796652793884277
1713723121986130025,-0.3099919557571411,-0.009587380103766918,0.001065264455974102,0.08858545869588852,1.3778630495071411,9.39484691619873
1713723121995130025,-0.3515372574329376,0.008522115647792816,0.022370552644133568,0.47884032130241394,-0.0933738648891449,9.044096946716309
1713723122005130025,-0.1768338978290558,-0.037284255027770996,-0.03941478580236435,-1.2198457717895508,-3.3925838470458984,8.406042098999023
1713723122014130025,-0.049002163112163544,-0.04048004746437073,0.03834952041506767,-1.304839849472046,-4.082113742828369,9.317035675048828
1713723122023130025,0.09374327212572098,-0.03515372797846794,-0.01810949482023716,0.8295908570289612,-1.5933412313461304,11.645397186279297
1713723122033130025,0.011717909015715122,0.03621898964047432,-0.011717909015715122,1.437718152999878,-0.606930136680603,13.405135154724121
1713723122043130025,-0.03515372797846794,0.04580637067556381,-0.044741105288267136,0.6943184733390808,-1.4113818407058716,13.765462875366211
1713723122052130025,0.049002163112163544,0.0,-0.029827404767274857,-1.6950948238372803,-4.135983467102051,9.210494041442871
1713723122062130025,0.14061491191387177,-0.017044231295585632,0.015978965908288956,-1.1743558645248413,-3.422511339187622,6.921637058258057
1713723122072130025,0.296143501996994,-0.029827404767274857,-0.03195793181657791,0.9361328482627869,-0.355538934469223,7.303512096405029
1713723122081130025,0.22370553016662598,0.023435818031430244,-0.015978965908288956,0.9062053561210632,1.5203180313110352,8.846574783325195
1713723122090130025,0.07669904083013535,0.0511326938867569,-0.03621898964047432,0.32441431283950806,2.829946279525757,11.006145477294922
1713723122100130025,-0.1299622654914856,0.04367584362626076,-0.00532632227987051,-0.15322890877723694,2.3295581340789795,10.599130630493164
1713723122110130025,-0.28975191712379456,0.007456851191818714,-0.003195793367922306,-0.29448679089546204,1.1049240827560425,9.593565940856934
1713723122119130025,-0.26738137006759644,-0.034088462591171265,-0.013848437927663326,-1.3251906633377075,-0.9277531504631042,8.695740699768066
1713723122129130025,-0.12144014239311218,-0.09161274135112762,-0.00532632227987051,-1.7262194156646729,-3.199850559234619,7.955932140350342
1713723122139130025,0.01810949482023716,-0.07563377171754837,0.023435818031430244,0.5770025849342346,-2.4013843536376953,9.605537414550781
1713723122148130025,0.07350324839353561,-0.008522115647792816,-0.024501081556081772,1.9764134883880615,-0.8068459630012512,11.947066307067871
1713723122158130025,-0.004261057823896408,0.08309062570333481,-0.026631610468029976,1.5203180313110352,-1.235408067703247,12.530054092407227
1713723122167130025,-0.07350324839353561,0.07350324839353561,-0.03302319720387459,-0.47644612193107605,-2.278082847595215,12.905943870544434
1713723122177130025,0.03195793181657791,-0.030892668291926384,-0.03302319720387459,-2.3930046558380127,-4.198232650756836,9.515754699707031
1713723122186130025,0.13741911947727203,-0.05432848632335663,0.044741105288267136,-0.6763619780540466,-2.8119897842407227,7.909245014190674
1713723122195371067,0.29507824778556824,-0.06072007119655609,-0.052197955548763275,1.1492167711257935,-0.10534487664699554,7.875726222991943
1713723122205371067,0.21624867618083954,0.007456851191818714,-0.01065264455974102,0.9026139974594116,0.8607155084609985,8.441954612731934
1713723122215371067,0.07243797928094864,0.04367584362626076,-0.047936901450157166,0.3148375153541565,2.1104886531829834,10.99776554107666
1713723122223371067,-0.11398329585790634,0.05006742849946022,-0.01065264455974102,-0.02992752008140087,1.9249380826950073,10.475829124450684
1713723122233371067,-0.26738137006759644,0.03195793181657791,-0.008522115647792816,-0.08858545869588852,1.0103530883789062,9.431957244873047
1713723122243371067,-0.2631203234195709,0.011717909015715122,-0.029827404767274857,-1.0522515773773193,-0.4453215003013611,9.455899238586426
1713723122252371067,-0.11504855751991272,-0.06924218684434891,-0.024501081556081772,-2.05781626701355,-3.088520050048828,8.453926086425781
1713723122262371067,-0.014913702383637428,-0.08628641813993454,0.02876213937997818,-0.3974374830722809,-2.6791117191314697,9.68813705444336
1713723122272371067,0.06391586363315582,-0.0511326938867569,-0.015978965908288956,1.5562310218811035,-1.0187327861785889,11.760318756103516
1713723122281371067,-0.017044231295585632,0.049002163112163544,0.0,1.8136078119277954,-1.3706804513931274,12.050017356872559
1713723122291371067,-0.044741105288267136,0.07989483326673508,-0.015978965908288956,0.21787235140800476,-1.9261351823806763,12.065579414367676
1713723122301371067,0.0649811327457428,0.02876213937997818,-0.014913702383637428,-2.190694570541382,-3.5063083171844482,8.904035568237305
1713723122310371067,0.15659387409687042,0.008522115647792816,0.058589544147253036,-1.2294225692749023,-2.161964178085327,8.064867973327637
1713723122319371067,0.27057716250419617,-0.022370552644133568,-0.008522115647792816,0.33518823981285095,0.39624038338661194,8.250418663024902
1713723122329371067,0.16085493564605713,0.019174760207533836,0.047936901450157166,-0.043095629662275314,1.4484920501708984,9.115922927856445
1713723122339371067,-0.002130528911948204,0.034088462591171265,0.012783173471689224,-0.3998316824436188,2.388216257095337,11.101913452148438
1713723122348371067,-0.16937704384326935,0.03195793181657791,0.05006742849946022,-0.6476315259933472,1.8004395961761475,9.915586471557617
1713723122358371067,-0.2684466242790222,0.004261057823896408,0.044741105288267136,-0.7194576263427734,0.3627215623855591,9.238027572631836
1713723122368371067,-0.18322548270225525,-0.07669904083013535,0.03515372797846794,-1.7082629203796387,-2.2661118507385254,8.416815757751465
1713723122377371067,-0.10333064943552017,-0.11078750342130661,0.09480853378772736,-1.4616601467132568,-2.956839084625244,8.81784439086914
1713723122387371067,0.009587380103766918,-0.09480853378772736,0.06285060197114944,0.5351040959358215,-1.1863269805908203,10.81700325012207
1713723122396371067,-0.015978965908288956,0.007456851191818714,0.08096009492874146,1.6053122282028198,-0.5626373887062073,12.265495300292969
1713723122406371067,-0.03834952041506767,0.06391586363315582,0.041545312851667404,1.2773065567016602,-1.5646108388900757,13.21479606628418
1713723122415371067,0.04367584362626076,0.024501081556081772,0.055393751710653305,-1.280897855758667,-4.28322696685791,10.595539093017578
1713723122425371067,0.11398329585790634,-0.003195793367922306,0.09693906456232071,-1.338358759880066,-4.0976762771606445,8.367734909057617
1713723122434371067,0.25779399275779724,-0.017044231295585632,0.0649811327457428,0.5734112858772278,-1.1180921792984009,7.772775650024414
1713723122445371067,0.20666129887104034,0.02556634694337845,0.06711165606975555,0.46327802538871765,1.1456254720687866,8.577227592468262
1713723122454371067,0.10759171098470688,0.05432848632335663,0.052197955548763275,0.010773907415568829,2.4361002445220947,10.122684478759766
1713723122463371067,-0.06178533658385277,0.05326322093605995,0.07563377171754837,-0.424970805644989,2.122459888458252,9.824606895446777
