t,gx,gy,gz,ax,ay,az
1713723114137664899,0.20026971399784088,0.019174760207533836,-0.06285060197114944,0.628477931022644,4.400542736053467,8.617928504943848
1713723114146664899,0.002130528911948204,0.013848437927663326,-0.044741105288267136,-0.13287819921970367,5.2480902671813965,9.524134635925293
1713723114156664899,-0.18642127513885498,-0.006391586735844612,-0.049002163112163544,-0.061052143573760986,4.681861400604248,10.824185371398926
1713723114165664899,-0.3110572099685669,-0.01810949482023716,-0.023435818031430244,0.6727706789970398,1.932120680809021,9.587580680847168
1713723114175664899,-0.3067961633205414,-0.001065264455974102,-0.052197955548763275,0.7003039717674255,-1.334767460823059,10.068815231323242
1713723114185664899,-0.10972223430871964,-0.02876213937997818,-0.06711165606975555,-1.436521053314209,-5.743690013885498,9.184157371520996
1713723114194664899,-0.03515372797846794,-0.02876213937997818,0.004261057823896408,-0.14365209639072418,-5.293580055236816,9.525331497192383
1713723114204664899,0.1022653877735138,0.020240023732185364,-0.07350324839353561,2.5055320262908936,-1.1743558645248413,12.072761535644531
1713723114214664899,0.03195793181657791,0.092678003013134,-0.055393751710653305,1.7477672100067139,0.28730419278144836,12.834117889404297
1713723114223664899,0.05006742849946022,0.08735168725252151,-0.1065264418721199,-1.0642226934432983,-1.0283095836639404,12.2188081741333
1713723114233664899,0.08309062570333481,0.00532632227987051,-0.0511326938867569,-3.3722331523895264,-3.5051112174987793,8.752004623413086
1713723114242664899,0.13528858125209808,-0.07137271761894226,-0.02130528911948204,-1.3251906633377075,-1.6340426206588745,7.754819393157959
1713723114252664899,0.1949433982372284,-0.07243797928094864,-0.05432848632335663,1.182735562324524,1.4987702369689941,8.329427719116211
1713723114261664899,0.12250541150569916,-0.020240023732185364,-0.06391586363315582,1.4508862495422363,2.7940332889556885,8.924386978149414
1713723114271664899,-0.01810949482023716,0.011717909015715122,-0.06711165606975555,1.0426747798919678,3.5625720024108887,10.623072624206543
1713723114281664899,-0.14594122767448425,0.03515372797846794,-0.06178533658385277,0.7433996200561523,2.7676970958709717,10.643423080444336
1713723114290664899,-0.24288028478622437,0.05645901337265968,-0.04048004746437073,0.7062894701957703,0.9612719416618347,9.957484245300293
1713723114300664899,-0.14487595856189728,0.017044231295585632,-0.1022653877735138,-1.235408067703247,-2.9544448852539062,9.166200637817383
1713723114310664899,-0.06285060197114944,-0.0511326938867569,-0.019174760207533836,-2.4827871322631836,-5.286397457122803,8.71489429473877
1713723114320664899,0.05006742849946022,-0.0649811327457428,-0.034088462591171265,0.4010287821292877,-2.055422067642212,10.740388870239258
1713723114328664899,0.08415588736534119,0.00532632227987051,-0.05432848632335663,2.5079262256622314,0.7864952683448792,12.076353073120117
1713723114338664899,0.03195793181657791,0.08948221057653427,-0.08948221057653427,1.8483237028121948,0.7158662676811218,11.006145477294922
1713723114348664899,-0.034088462591171265,0.12357067316770554,-0.06924218684434891,-0.22266075015068054,-0.1496376097202301,11.619060516357422
1713723114358664899,0.04367584362626076,0.02556634694337845,-0.10546118021011353,-3.3650503158569336,-2.828749179840088,9.99220085144043
1713723114367664899,0.037284255027770996,-0.06072007119655609,0.008522115647792816,-2.5067291259765625,-2.677914619445801,8.501810073852539
1713723114377664899,0.14274543523788452,-0.10013485699892044,-0.06604639440774918,0.872686505317688,0.033518824726343155,8.576030731201172
1713723114386664899,0.07243797928094864,-0.03941478580236435,-0.02556634694337845,2.054224967956543,1.4664485454559326,9.102754592895508
1713723114396664899,-0.001065264455974102,0.03302319720387459,-0.08628641813993454,2.050633668899536,2.492363929748535,10.746374130249023
1713723114406664899,-0.08628641813993454,0.08096009492874146,-0.06285060197114944,1.2114660739898682,1.9620482921600342,9.895235061645508
1713723114415664899,-0.14913702011108398,0.0884169489145279,-0.08202536404132843,0.2214636504650116,0.8535329103469849,9.77672290802002
1713723114425664899,-0.07456851005554199,0.020240023732185364,-0.10120011866092682,-2.296039342880249,-2.049436569213867,9.402029991149902
1713723114434664899,-0.06285060197114944,-0.06285060197114944,-0.03302319720387459,-2.785653591156006,-3.24414324760437,9.695319175720215
1713723114444664899,0.015978965908288956,-0.09054747968912125,-0.04367584362626076,0.22505494952201843,-1.0414776802062988,10.872069358825684
1713723114453664899,0.013848437927663326,-0.024501081556081772,-0.0511326938867569,2.1499931812286377,0.14365209639072418,10.831368446350098
1713723114463664899,-0.002130528911948204,0.06604639440774918,-0.08202536404132843,2.1511902809143066,0.04189852997660637,10.563218116760254
1713723114473664899,0.008522115647792816,0.09906959533691406,-0.08522115647792816,0.06703764945268631,-0.9971849918365479,10.667365074157715
1713723114482664899,0.04261057823896408,0.034088462591171265,-0.08202536404132843,-2.169146776199341,-2.539050817489624,10.103530883789062
1713723114492664899,0.05326322093605995,-0.023435818031430244,-0.019174760207533836,-1.3922282457351685,-1.5514426231384277,9.96945571899414
1713723114501664899,0.09693906456232071,-0.04367584362626076,-0.06285060197114944,0.3734954595565796,0.1999158412218094,9.378087997436523
1713723114511664899,0.0649811327457428,-0.014913702383637428,-0.0511326938867569,0.9493009448051453,0.7457938194274902,8.719682693481445
1713723114521664899,0.008522115647792816,0.023435818031430244,-0.07456851005554199,0.9911994934082031,1.5981296300888062,9.801861763000488
1713723114530664899,-0.04580637067556381,0.04580637067556381,-0.08415588736534119,0.44173020124435425,1.6783353090286255,9.72404956817627
1713723114540664899,-0.1161138266324997,0.041545312851667404,-0.0788295716047287,-0.3579331338405609,1.0450689792633057,9.72165584564209
1713723114549664899,-0.10759171098470688,-0.013848437927663326,-0.09480853378772736,-1.7489643096923828,-0.9469067454338074,10.522516250610352
1713723114559664899,-0.07669904083013535,-0.09161274135112762,-0.044741105288267136,-2.208651065826416,-3.111264944076538,10.729615211486816
1713723114569664899,-0.022370552644133568,-0.09587380290031433,-0.014913702383637428,0.5650315880775452,-2.1787235736846924,10.772710800170898
1713723114578664899,0.058589544147253036,-0.008522115647792816,-0.05326322093605995,2.9747955799102783,-0.9349357485771179,9.744400978088379
1713723114588664899,0.06817692518234253,0.09800432622432709,-0.07030745595693588,2.469619035720825,-0.6212953329086304,9.004592895507812
1713723114598664899,0.04261057823896408,0.14594122767448425,-0.08202536404132843,0.629675030708313,0.4704606235027313,10.398017883300781
1713723114607664899,0.019174760207533836,0.10013485699892044,-0.08628641813993454,-1.91057288646698,0.46567222476005554,11.474211692810059
1713723114617664899,0.001065264455974102,-0.019174760207533836,-0.06072007119655609,-3.5685575008392334,-1.0749965906143188,10.418368339538574
1713723114627664899,-0.020240023732185364,-0.10865697264671326,-0.01810949482023716,-1.8555063009262085,-1.092953085899353,9.47265911102295
1713723114636664899,0.03302319720387459,-0.11504855751991272,-0.04261057823896408,1.1252747774124146,-0.3363853394985199,8.639476776123047
1713723114645664899,0.034088462591171265,-0.03515372797846794,-0.047936901450157166,2.4612393379211426,0.0035913025494664907,8.32104778289795
1713723114655664899,0.019174760207533836,0.05432848632335663,-0.07776430249214172,2.427720546722412,1.1061211824417114,9.66419506072998
1713723114666222986,-0.03621898964047432,0.11291802674531937,-0.08735168725252151,1.1839326620101929,1.7609353065490723,10.575188636779785
1713723114676222986,-0.1257012039422989,0.10546118021011353,-0.0884169489145279,-0.6428431272506714,1.192312479019165,12.113463401794434
1713723114684222986,-0.06924218684434891,-0.01065264455974102,-0.08628641813993454,-3.7888240814208984,-2.740163803100586,11.250353813171387
1713723114694222986,-0.05965480953454971,-0.11078750342130661,0.011717909015715122,-3.35786771774292,-4.8602294921875,8.959102630615234
1713723114704222986,0.08415588736534119,-0.11078750342130661,-0.017044231295585632,1.2258312702178955,-1.9572598934173584,8.609549522399902
1713723114714222986,0.1161138266324997,-0.019174760207533836,-0.044741105288267136,3.338714122772217,0.7015010714530945,9.387664794921875
1713723114723222986,0.08948221057653427,0.08096009492874146,-0.08202536404132843,2.8598737716674805,2.0219032764434814,10.286687850952148
1713723114733222986,-0.024501081556081772,0.14487595856189728,-0.07669904083013535,1.2270283699035645,2.365471124649048,10.916362762451172
1713723114742222986,-0.13209278881549835,0.12676647305488586,-0.09480853378772736,-0.6129156351089478,1.4329296350479126,11.465831756591797
1713723114752222986,-0.07456851005554199,0.002130528911948204,-0.07989483326673508,-3.531447410583496,-2.5761609077453613,9.388861656188965
1713723114762222986,-0.05752427875995636,-0.08735168725252151,-0.012783173471689224,-2.9963433742523193,-3.9839515686035156,8.1510591506958
1713723114771222986,0.08628641813993454,-0.10333064943552017,-0.05432848632335663,0.95528644323349,-0.9864110946655273,8.51138687133789
1713723114781222986,0.044741105288267136,-0.03621898964047432,-0.06285060197114944,2.607285499572754,1.434126853942871,10.287884712219238
1713723114790222986,-0.013848437927663326,0.052197955548763275,-0.1022653877735138,2.5689783096313477,2.34033203125,11.927912712097168
1713723114800222986,-0.13848437368869781,0.12250541150569916,-0.08202536404132843,1.5394716262817383,1.3934253454208374,11.555614471435547
1713723114809222986,-0.08096009492874146,0.06604639440774918,-0.12783172726631165,-2.208651065826416,-2.977189779281616,10.641029357910156
1713723114819222986,-0.00532632227987051,-0.03195793181657791,-0.02556634694337845,-3.9444472789764404,-6.057330131530762,8.064867973327637
1713723114829222986,0.13741911947727203,-0.07563377171754837,-0.03302319720387459,-0.02513911761343479,-2.2206220626831055,8.610746383666992
1713723114838222986,0.18322548270225525,-0.044741105288267136,-0.08735168725252151,2.451662540435791,1.7860743999481201,10.48061752319336
1713723114848222986,0.09906959533691406,0.01065264455974102,-0.11504855751991272,2.05781626701355,2.762908697128296,10.47822380065918
1713723114857222986,-0.06391586363315582,0.05326322093605995,-0.10972223430871964,1.4640543460845947,2.6874914169311523,11.309011459350586
1713723114867222986,-0.18002969026565552,0.06178533658385277,-0.14168016612529755,1.179144263267517,1.3299790620803833,10.535684585571289
1713723114877222986,-0.19707392156124115,0.06285060197114944,-0.1342233121395111,0.24181437492370605,-1.1516109704971313,9.641449928283691
1713723114886222986,-0.058589544147253036,-0.002130528911948204,-0.19600865244865417,-1.945288896560669,-4.434061527252197,8.066065788269043
1713723114896222986,-0.009587380103766918,-0.04367584362626076,-0.10546118021011353,-0.5829880833625793,-3.248931646347046,8.565256118774414
1713723114905222986,0.06604639440774918,-0.044741105288267136,-0.2034655064344406,2.3523030281066895,0.42377370595932007,11.692083358764648
1713723114915222986,-0.009587380103766918,0.01810949482023716,-0.17363810539245605,2.734178304672241,0.8810662031173706,12.227188110351562
1713723114925222986,-0.09374327212572098,0.07989483326673508,-0.21198762953281403,2.389413356781006,0.07661445438861847,11.866860389709473
1713723114934222986,0.007456851191818714,0.06391586363315582,-0.24714134633541107,-0.6643909811973572,-3.384204149246216,9.277531623840332
1713723114944222986,0.041545312851667404,0.013848437927663326,-0.18002969026565552,-1.5526397228240967,-4.299986362457275,7.820659637451172
1713723114953222986,0.18748654425144196,-0.034088462591171265,-0.2514024078845978,0.9397241473197937,-0.8044517636299133,8.196549415588379
1713723114963222986,0.12783172726631165,-0.01065264455974102,-0.2407497614622116,1.8794482946395874,2.141613483428955,10.123881340026855
1713723114973222986,0.029827404767274857,0.02556634694337845,-0.30892667174339294,2.0039467811584473,3.399766445159912,11.775880813598633
1713723114983222986,-0.11185276508331299,0.06604639440774918,-0.26738137006759644,1.5550339221954346,2.4181437492370605,10.654197692871094
1713723114992222986,-0.1949433982372284,0.08735168725252151,-0.31212249398231506,0.9002197980880737,0.4620809257030487,9.750386238098145
1713723115001222986,-0.08415588736534119,0.024501081556081772,-0.3206445872783661,-2.212242364883423,-3.776853084564209,8.451531410217285
1713723115011222986,-0.0511326938867569,-0.05326322093605995,-0.24394555389881134,-3.00711727142334,-4.98592472076416,9.378087997436523
1713723115021222986,0.06604639440774918,-0.07243797928094864,-0.2556634545326233,0.6931213736534119,-1.337161660194397,11.4849853515625
1713723115031222986,0.03834952041506767,0.01810949482023716,-0.24714134633541107,2.5534160137176514,0.6272808313369751,12.000935554504395
1713723115040222986,0.024501081556081772,0.12250541150569916,-0.29933929443359375,1.9584569931030273,0.1711854189634323,10.125079154968262
1713723115049222986,0.027696875855326653,0.14487595856189728,-0.27057716250419617,-0.7685387134552002,-1.338358759880066,8.57004451751709
1713723115059222986,0.044741105288267136,0.06178533658385277,-0.2727077007293701,-2.779668092727661,-1.5346832275390625,8.96269416809082
1713723115069222986,0.0649811327457428,-0.022370552644133568,-0.2130528837442398,-2.033874273300171,0.2238578498363495,9.550470352172852
1713723115078222986,0.011717909015715122,-0.058589544147253036,-0.24501082301139832,-0.6368576288223267,1.7178397178649902,10.791864395141602
1713723115088222986,-0.044741105288267136,-0.03834952041506767,-0.22050973773002625,0.44173020124435425,1.3239935636520386,10.415974617004395
1713723115097222986,-0.11078750342130661,0.015978965908288956,-0.2183792144060135,1.0271124839782715,0.2621650695800781,9.657011985778809
1713723115107222986,-0.0649811327457428,0.04261057823896408,-0.2460760921239853,-0.16519992053508759,-1.3299790620803833,9.364919662475586
1713723115117222986,-0.020240023732185364,0.013848437927663326,-0.2045307755470276,-1.2617442607879639,-2.4803929328918457,9.1231050491333
1713723115126222986,0.009587380103766918,0.0,-0.1896170675754547,-0.3016694188117981,-0.8870517015457153,10.887632369995117
1713723115136222986,-0.006391586735844612,0.029827404767274857,-0.18642127513885498,0.2106897532939911,0.23702596127986908,12.621033668518066
1713723115145222986,0.023435818031430244,0.02130528911948204,-0.1992044448852539,-1.6783353090286255,-2.227804660797119,11.350910186767578
1713723115155222986,0.04261057823896408,-0.020240023732185364,-0.12250541150569916,-2.5941174030303955,-3.8307225704193115,9.186552047729492
1713723115164222986,0.12889699637889862,-0.034088462591171265,-0.12889699637889862,-0.4010287821292877,-1.3850456476211548,8.868123054504395
1713723115174222986,0.15233281254768372,0.003195793367922306,-0.12889699637889862,1.1264718770980835,1.278503656387329,9.188945770263672
1713723115184222986,0.10439591109752655,0.05432848632335663,-0.13848437368869781,0.8283937573432922,2.383427858352661,8.974664688110352
1713723115194222986,-0.02130528911948204,0.09374327212572098,-0.11504855751991272,-0.21428105235099792,3.0154969692230225,9.894038200378418
1713723115204222986,-0.14274543523788452,0.08202536404132843,-0.12144014239311218,-1.4975731372833252,2.6372132301330566,10.800243377685547
1713723115212222986,-0.14594122767448425,-0.009587380103766918,-0.09054747968912125,-3.693056106567383,-0.5123591423034668,10.362104415893555
1713723115222222986,-0.09800432622432709,-0.12463594228029251,-0.03621898964047432,-3.9624037742614746,-3.7241806983947754,8.846574783325195
1713723115232222986,-0.023435818031430244,-0.15552860498428345,-0.023435818031430244,-0.0071826050989329815,-2.209848165512085,8.972270965576172
1713723115241222986,0.03515372797846794,-0.08735168725252151,-0.055393751710653305,3.1088707447052,0.21188685297966003,10.613495826721191
1713723115252222986,-0.00532632227987051,0.04687163606286049,-0.07456851005554199,3.2178070545196533,0.40462008118629456,11.12465763092041
1713723115260222986,-0.08096009492874146,0.15020228922367096,-0.06178533658385277,1.2737152576446533,-0.16998831927776337,13.036428451538086
1713723115270222986,0.05752427875995636,0.0788295716047287,-0.11504855751991272,-3.5254619121551514,-4.564545631408691,11.420341491699219
1713723115280222986,0.07137271761894226,-0.02130528911948204,0.03834952041506767,-4.383783340454102,-5.643133163452148,8.346186637878418
1713723115289222986,0.23435817658901215,-0.09693906456232071,-0.026631610468029976,-0.38786065578460693,-0.8595184087753296,8.135497093200684
1713723115300222986,0.17257283627986908,-0.06178533658385277,-0.008522115647792816,1.3539210557937622,2.7054479122161865,9.400833129882812
1713723115309222986,0.09693906456232071,-0.019174760207533836,-0.06924218684434891,1.0965443849563599,3.927687883377075,9.703699111938477
1713723115318222986,-0.07350324839353561,0.022370552644133568,0.006391586735844612,0.6200982332229614,3.529053211212158,9.587580680847168
1713723115328222986,-0.1906823366880417,0.041545312851667404,-0.03834952041506767,0.6943184733390808,2.492363929748535,10.074800491333008
1713723115338222986,-0.2460760921239853,0.07137271761894226,0.011717909015715122,0.751779317855835,0.690727174282074,9.074024200439453
1713723115347222986,-0.12783172726631165,0.02876213937997818,-0.06604639440774918,-1.602918028831482,-3.0166940689086914,8.571242332458496
1713723115356222986,-0.08202536404132843,-0.029827404767274857,0.034088462591171265,-2.409764051437378,-4.158728122711182,9.205705642700195
1713723115366222986,0.007456851191818714,-0.05006742849946022,0.003195793367922306,0.11133037507534027,-0.9684545993804932,11.620257377624512
1713723115375222986,-0.047936901450157166,0.003195793367922306,0.0,1.4496891498565674,0.5183446407318115,13.478157997131348
1713723115386222986,-0.015978965908288956,0.015978965908288956,-0.034088462591171265,-0.13287819921970367,-2.234987258911133,12.843694686889648
1713723115395222986,0.06178533658385277,-0.029827404767274857,0.003195793367922306,-2.3295581340789795,-5.918466567993164,9.544485092163086
1713723115405222986,0.15233281254768372,-0.04261057823896408,0.04367584362626076,-0.23702596127986908,-3.397372245788574,8.542511940002441
1713723115414222986,0.2737729549407959,-0.002130528911948204,-0.023435818031430244,2.1475989818573,0.7553706169128418,8.457517623901367
1713723115424222986,0.20666129887104034,0.06817692518234253,-0.015978965908288956,1.456871747970581,2.5749638080596924,8.142680168151855
1713723115433222986,0.037284255027770996,0.08415588736534119,-0.02876213937997818,0.11971008032560349,4.401739597320557,10.29865837097168
1713723115443222986,-0.13848437368869781,0.055393751710653305,-0.012783173471689224,-0.9397241473197937,4.204217910766602,10.685321807861328
1713723115453222986,-0.287621408700943,0.012783173471689224,0.019174760207533836,-1.0881646871566772,2.1272482872009277,9.841365814208984
1713723115462222986,-0.21518342196941376,-0.07137271761894226,-0.027696875855326653,-2.321178436279297,-2.3702597618103027,8.869319915771484
1713723115472222986,-0.14061491191387177,-0.13635385036468506,0.06817692518234253,-2.0410568714141846,-5.038597583770752,8.42160415649414
1713723115481222986,-0.011717909015715122,-0.11078750342130661,0.024501081556081772,1.7776947021484375,-2.229001760482788,10.494982719421387
1713723115491222986,0.022370552644133568,0.008522115647792816,0.012783173471689224,3.6774938106536865,0.04668693244457245,12.45822811126709
1713723115500222986,-0.013848437927663326,0.12144014239311218,-0.03621898964047432,2.778470993041992,-0.5590460896492004,12.740744590759277
1713723115510222986,0.06604639440774918,0.1065264418721199,-0.03515372797846794,-1.8698714971542358,-4.240131378173828,11.073183059692383
1713723115519222986,0.10120011866092682,0.013848437927663326,0.023435818031430244,-4.094084739685059,-5.608417510986328,8.856151580810547
1713723115529222986,0.23435817658901215,-0.05006742849946022,0.05006742849946022,-0.8092401623725891,-1.280897855758667,8.580819129943848
1713723115539222986,0.22477079927921295,-0.037284255027770996,0.0,1.1001356840133667,2.7114334106445312,9.121908187866211
1713723115548222986,0.15020228922367096,0.00532632227987051,-0.013848437927663326,0.9696516990661621,3.957615375518799,8.759186744689941
1713723115558222986,-0.05432848632335663,0.02130528911948204,0.014913702383637428,0.1843535304069519,4.264073371887207,9.985017776489258
1713723115568222986,-0.18322548270225525,0.019174760207533836,-0.002130528911948204,-0.05147533491253853,3.2106244564056396,10.362104415893555
1713723115577222986,-0.2929477095603943,0.030892668291926384,0.06178533658385277,0.25258827209472656,0.9780313968658447,9.366116523742676
1713723115587222986,-0.19387812912464142,0.004261057823896408,-0.03195793181657791,-1.43532395362854,-2.742558002471924,9.064447402954102
1713723115596222986,-0.09374327212572098,-0.055393751710653305,0.07989483326673508,-2.829946279525757,-5.467159271240234,8.71489429473877
1713723115607222986,-0.001065264455974102,-0.06285060197114944,0.0649811327457428,0.11971008032560349,-2.388216257095337,11.651382446289062
1713723115615222986,0.037284255027770996,0.009587380103766918,0.06285060197114944,2.3714568614959717,0.44412440061569214,13.415908813476562
1713723115625222986,-0.011717909015715122,0.0884169489145279,0.041545312851667404,1.2916717529296875,-0.7697358131408691,12.691662788391113
1713723115635222986,0.08096009492874146,0.05432848632335663,0.02556634694337845,-2.604891300201416,-4.835090160369873,10.404003143310547
1713723115644222986,0.1022653877735138,-0.01810949482023716,0.11078750342130661,-3.1663317680358887,-5.043385982513428,8.432377815246582
1713723115654222986,0.2556634545326233,-0.06072007119655609,0.07563377171754837,0.11133037507534027,-0.5351040959358215,7.846995830535889
1713723115663222986,0.19707392156124115,-0.02130528911948204,0.0788295716047287,1.179144263267517,2.7102363109588623,8.833407402038574
1713723115673222986,0.1022653877735138,0.023435818031430244,0.03302319720387459,0.8020575642585754,4.405331134796143,9.836577415466309
1713723115683222986,-0.08309062570333481,0.047936901450157166,0.09800432622432709,-0.08978256583213806,4.277241230010986,10.056843757629395
1713723115693222986,-0.22477079927921295,0.037284255027770996,0.07030745595693588,-0.31603461503982544,2.8359317779541016,10.351330757141113
1713723115702222986,-0.25353294610977173,0.01065264455974102,0.1022653877735138,-1.1731587648391724,-0.2825157940387726,10.134655952453613
1713723115712222986,-0.11717908829450607,-0.08202536404132843,0.058589544147253036,-3.0980968475341797,-4.900930881500244,8.53293514251709
1713723115721222986,-0.06391586363315582,-0.10759171098470688,0.17257283627986908,-0.5853822827339172,-4.314351558685303,8.991424560546875
1713723115731222986,0.0649811327457428,-0.05432848632335663,0.06817692518234253,3.0777461528778076,-0.7565677165985107,11.330559730529785
1713723115741222986,-0.013848437927663326,0.06817692518234253,0.1022653877735138,3.074154853820801,-0.010773907415568829,12.54801082611084
1713723115750222986,-0.009587380103766918,0.10120011866092682,0.04367584362626076,-0.14724339544773102,-1.7561469078063965,13.839682579040527
1713723115759222986,0.10333064943552017,0.004261057823896408,0.07137271761894226,-4.07014274597168,-6.245275020599365,10.460267066955566
1713723115769222986,0.15872439742088318,-0.055393751710653305,0.1757686287164688,-1.6950948238372803,-4.345476150512695,9.068038940429688
1713723115779222986,0.3387540876865387,-0.05752427875995636,0.04687163606286049,1.5275006294250488,0.1496376097202301,7.73207426071167
1713723115788222986,0.2460760921239853,0.007456851191818714,0.11078750342130661,1.194706678390503,2.1116857528686523,7.297526836395264
1713723115798222986,0.13102751970291138,0.04048004746437073,0.041545312851667404,0.3447650372982025,4.443638324737549,9.544485092163086
1713723115808222986,-0.052197955548763275,0.047936901450157166,0.1257012039422989,-0.4836287498474121,4.999093055725098,9.727641105651855
1713723115817222986,-0.23968449234962463,0.02556634694337845,0.10333064943552017,-0.4141968786716461,3.8714241981506348,10.127472877502441
1713723115827222986,-0.3302319645881653,0.022370552644133568,0.1395496428012848,0.15801730751991272,1.3958195447921753,9.619902610778809
1713723115836222986,-0.18322548270225525,-0.05006742849946022,0.06924218684434891,-2.335543632507324,-4.303577423095703,9.008183479309082
1713723115846222986,-0.09587380290031433,-0.11185276508331299,0.1715075671672821,-2.5246856212615967,-6.774393558502197,9.297882080078125
1713723115856222986,0.08415588736534119,-0.08309062570333481,0.148071750998497,2.0015525817871094,-2.4588451385498047,11.319785118103027
1713723115865222986,0.0788295716047287,0.04261057823896408,0.11078750342130661,3.6080617904663086,0.5722141861915588,13.571532249450684
1713723115875222986,0.03941478580236435,0.14700649678707123,0.10013485699892044,2.3020248413085938,0.06823474913835526,12.121843338012695
1713723115884222986,0.0649811327457428,0.12783172726631165,0.09906959533691406,-1.581370234489441,-3.2082302570343018,9.8784761428833
1713723115894222986,0.11504855751991272,0.05432848632335663,0.15126754343509674,-3.817554473876953,-4.4496235847473145,8.213308334350586
1713723115903222986,0.20985709130764008,-0.001065264455974102,0.185356006026268,-2.033874273300171,-0.730231523513794,8.057685852050781
1713723115914222986,0.2034655064344406,-0.017044231295585632,0.1619201898574829,-0.6584054827690125,2.9688100814819336,9.591172218322754
1713723115923222986,0.092678003013134,0.003195793367922306,0.18322548270225525,-0.19393032789230347,4.006696701049805,9.645041465759277
1713723115932222986,-0.09587380290031433,0.030892668291926384,0.19707392156124115,0.0071826050989329815,3.6990416049957275,10.2747163772583
1713723115942222986,-0.23009711503982544,0.04048004746437073,0.1992044448852539,-0.08379705995321274,2.139219284057617,10.426748275756836
1713723115951222986,-0.16937704384326935,0.003195793367922306,0.2087918221950531,-2.4361002445220947,-2.2912509441375732,9.634267807006836
1713723115961222986,-0.06817692518234253,-0.08522115647792816,0.23861923813819885,-3.8582558631896973,-5.9076924324035645,8.927977561950684
1713723115971222986,0.03941478580236435,-0.09374327212572098,0.2918824553489685,-0.05506663769483566,-3.0310592651367188,10.691307067871094
1713723115980222986,0.11398329585790634,-0.024501081556081772,0.20985709130764008,2.823960781097412,0.32202011346817017,11.603498458862305
1713723115990222986,0.05432848632335663,0.07243797928094864,0.2173139452934265,2.3104045391082764,0.3148375153541565,10.27591323852539
1713723116000222986,-0.03515372797846794,0.13528858125209808,0.21944446861743927,0.9457096457481384,0.24061726033687592,11.480196952819824
1713723116010222986,0.049002163112163544,0.08202536404132843,0.18322548270225525,-3.004723072052002,-2.4624364376068115,10.360907554626465
1713723116018222986,0.04261057823896408,-0.014913702383637428,0.3014698326587677,-4.01268196105957,-3.817554473876953,8.553285598754883
1713723116028222986,0.13741911947727203,-0.07776430249214172,0.2599245309829712,-0.7457938194274902,-0.7134720683097839,9.070432662963867
1713723116038222986,0.11185276508331299,-0.04580637067556381,0.2833603322505951,1.0749965906143188,1.7932569980621338,9.713275909423828
1713723116048222986,0.058589544147253036,0.013848437927663326,0.23435817658901215,1.5430629253387451,2.5306711196899414,9.728838920593262
1713723116057222986,-0.04367584362626076,0.07350324839353561,0.27057716250419617,1.0295066833496094,2.248155355453491,9.247604370117188
1713723116067222986,-0.14487595856189728,0.092678003013134,0.2364886999130249,-0.035913024097681046,1.5933412313461304,10.251971244812012
1713723116076222986,-0.1065264418721199,0.022370552644133568,0.24501082301139832,-2.851494073867798,-1.8255788087844849,11.282675743103027
1713723116086222986,-0.05432848632335663,-0.10759171098470688,0.2908172011375427,-4.3179426193237305,-5.473145008087158,10.928333282470703
1713723116095222986,0.02876213937997818,-0.14487595856189728,0.3302319645881653,0.017956512048840523,-3.4835634231567383,10.651803016662598
1713723116105222986,0.14487595856189728,-0.06924218684434891,0.25672873854637146,3.7708675861358643,-0.8092401623725891,9.349357604980469
1713723116114222986,0.14061491191387177,0.07563377171754837,0.23009711503982544,3.5685575008392334,0.05267243832349777,8.408435821533203
1713723116124222986,0.08628641813993454,0.18855179846286774,0.21198762953281403,1.7286136150360107,1.6867151260375977,10.11909294128418
1713723116135222986,-0.007456851191818714,0.18216021358966827,0.19174760580062866,-1.1552022695541382,2.345120429992676,10.976217269897461
1713723116143222986,-0.07989483326673508,0.047936901450157166,0.23116238415241241,-3.931279182434082,0.5315127968788147,11.183316230773926
1713723116153222986,-0.07030745595693588,-0.11398329585790634,0.26205503940582275,-4.248510837554932,-2.7473464012145996,10.08318042755127
1713723116162222986,-0.037284255027770996,-0.16085493564605713,0.2908172011375427,-0.5003881454467773,-2.5258827209472656,9.082404136657715
1713723116172222986,0.08628641813993454,-0.11078750342130661,0.23009711503982544,2.7664999961853027,-0.6871358752250671,8.44434928894043
1713723116182222986,0.058589544147253036,0.009587380103766918,0.22583605349063873,3.110067844390869,0.2908954918384552,9.441534042358398
1713723116191222986,0.01065264455974102,0.09906959533691406,0.18642127513885498,2.2254104614257812,1.358709454536438,11.66455078125
1713723116201222986,-0.06817692518234253,0.11078750342130661,0.1810949593782425,0.30047231912612915,0.5853822827339172,12.109871864318848
1713723116210222986,-0.007456851191818714,0.003195793367922306,0.15020228922367096,-3.050212860107422,-3.2609026432037354,10.450690269470215
1713723116221222986,0.0,-0.08948221057653427,0.24288028478622437,-2.5498247146606445,-4.211400508880615,8.960299491882324
1713723116230222986,0.1395496428012848,-0.10439591109752655,0.1810949593782425,1.2054805755615234,-1.0785878896713257,8.598774909973145
1713723116240222986,0.11291802674531937,-0.02130528911948204,0.16937704384326935,2.5761609077453613,1.1312602758407593,9.35773754119873
1713723116249222986,0.06604639440774918,0.049002163112163544,0.11504855751991272,2.3570914268493652,2.412158250808716,10.51054573059082
1713723116258222986,-0.041545312851667404,0.08202536404132843,0.11930961906909943,1.2114660739898682,2.1990742683410645,10.122684478759766
1713723116268222986,-0.1257012039422989,0.06924218684434891,0.09374327212572098,0.03232172131538391,1.1348515748977661,9.919177055358887
1713723116278222986,-0.07989483326673508,-0.006391586735844612,0.1022653877735138,-1.6124948263168335,-1.6280571222305298,9.228450775146484
1713723116287222986,-0.05752427875995636,-0.0649811327457428,0.13741911947727203,-1.5622166395187378,-2.829946279525757,9.366116523742676
1713723116297222986,0.014913702383637428,-0.07776430249214172,0.10333064943552017,0.7781155109405518,-1.015141487121582,10.667365074157715
1713723116307222986,0.001065264455974102,-0.04048004746437073,0.08628641813993454,2.2888567447662354,-0.002394201699644327,11.705251693725586
1713723116317222986,-0.013848437927663326,0.004261057823896408,0.026631610468029976,2.673126220703125,-0.6260837316513062,11.45386028289795
1713723116326222986,0.030892668291926384,0.02876213937997818,0.012783173471689224,1.4772224426269531,-2.63362193107605,9.841365814208984
1713723116335222986,0.06604639440774918,0.03515372797846794,0.009587380103766918,0.42018237709999084,-3.0621838569641113,8.968679428100586
1713723116345222986,0.1395496428012848,0.047936901450157166,0.00532632227987051,0.6320692300796509,-0.9576806426048279,9.194931030273438
1713723116355222986,0.1257012039422989,0.055393751710653305,-0.023435818031430244,0.4129997789859772,1.0534486770629883,9.807847023010254
1713723116364222986,0.07456851005554199,0.03515372797846794,-0.027696875855326653,-0.14006079733371735,1.9369091987609863,9.909600257873535
1713723116374222986,-0.024501081556081772,0.002130528911948204,-0.02876213937997818,-0.416591078042984,1.9476830959320068,9.822212219238281
1713723116383222986,-0.1022653877735138,-0.03195793181657791,-0.05006742849946022,-0.22864626348018646,1.3934253454208374,10.177751541137695
1713723116393222986,-0.1203748807311058,-0.041545312851667404,-0.03621898964047432,0.38546645641326904,0.10295066982507706,9.534908294677734
1713723116403222986,-0.07669904083013535,-0.034088462591171265,-0.07137271761894226,0.5949591398239136,-1.5418658256530762,8.868123054504395
1713723116412222986,-0.04048004746437073,-0.009587380103766918,-0.06178533658385277,0.7625532150268555,-1.886630892753601,9.35773754119873
1713723116422222986,-0.012783173471689224,0.012783173471689224,-0.09587380290031433,1.0283095836639404,-0.9852139949798584,11.479000091552734
1713723116431222986,0.011717909015715122,-0.002130528911948204,-0.10972223430871964,-0.14484919607639313,-1.8004395961761475,12.972981452941895
1713723116442222986,0.029827404767274857,-0.052197955548763275,-0.10439591109752655,-0.8463503122329712,-3.5422213077545166,11.704054832458496
1713723116450222986,0.07350324839353561,-0.05006742849946022,-0.08096009492874146,1.139639973640442,-2.87064790725708,10.145429611206055
1713723116460222986,0.16085493564605713,0.007456851191818714,-0.13209278881549835,2.89339280128479,-1.3299790620803833,8.556877136230469
1713723116470222986,0.1810949593782425,0.09054747968912125,-0.1533980816602707,2.364274024963379,0.03711012750864029,8.076839447021484
1713723116479222986,0.16298545897006989,0.11930961906909943,-0.1757686287164688,0.7314286231994629,1.886630892753601,8.83939266204834
1713723116489222986,0.0788295716047287,0.07989483326673508,-0.1810949593782425,-0.9564835429191589,3.116053342819214,8.977059364318848
1713723116498222986,-0.07669904083013535,0.001065264455974102,-0.16831177473068237,-1.6519991159439087,3.532644510269165,10.358513832092285
1713723116508222986,-0.19813919067382812,-0.07030745595693588,-0.17789916694164276,-1.0247182846069336,2.3977930545806885,11.118672370910645
1713723116518222986,-0.21624867618083954,-0.1065264418721199,-0.16831177473068237,-0.2777273952960968,-0.8236053586006165,10.433930397033691
1713723116528222986,-0.1022653877735138,-0.12144014239311218,-0.19174760580062866,0.19871874153614044,-4.98592472076416,9.635464668273926
1713723116537222986,0.004261057823896408,-0.037284255027770996,-0.1395496428012848,2.6408045291900635,-4.973953723907471,9.406818389892578
1713723116547222986,0.14913702011108398,0.04687163606286049,-0.29827404022216797,3.8271312713623047,-1.7800889015197754,9.50617790222168
1713723116556222986,0.0884169489145279,0.12357067316770554,-0.21518342196941376,2.029085874557495,0.6560112833976746,11.876437187194824
1713723116565222986,0.044741105288267136,0.11185276508331299,-0.3153182864189148,0.2190694510936737,1.1623848676681519,12.952630996704102
1713723116576222986,0.027696875855326653,0.034088462591171265,-0.2631203234195709,-2.5258827209472656,-1.5622166395187378,9.738415718078613
1713723116585222986,0.009587380103766918,-0.07563377171754837,-0.2269013226032257,-2.6827030181884766,-2.9221231937408447,8.537723541259766
1713723116594222986,0.09374327212572098,-0.11185276508331299,-0.2364886999130249,0.46327802538871765,-1.115697979927063,8.504204750061035
1713723116604222986,0.11717908829450607,-0.055393751710653305,-0.2460760921239853,2.49834942817688,0.833182156085968,8.771158218383789
1713723116613222986,0.09800432622432709,0.024501081556081772,-0.3067961633205414,2.7090392112731934,1.8818424940109253,9.355342864990234
1713723116624222986,-0.02130528911948204,0.08522115647792816,-0.27483823895454407,1.6723498106002808,2.4684219360351562,10.912771224975586
1713723116633222986,-0.13741911947727203,0.10759171098470688,-0.31318774819374084,0.35913026332855225,1.8770540952682495,12.018892288208008
1713723116642222986,-0.09587380290031433,0.047936901450157166,-0.28016453981399536,-2.962824583053589,-2.7437551021575928,10.9678373336792
1713723116652222986,-0.011717909015715122,-0.07350324839353561,-0.2269013226032257,-4.523844242095947,-6.713341236114502,8.71609115600586
1713723116662222986,0.12357067316770554,-0.10013485699892044,-0.18748654425144196,-0.07422025501728058,-3.1244332790374756,9.154230117797852
1713723116671222986,0.24288028478622437,-0.03941478580236435,-0.26738137006759644,2.785653591156006,1.070208191871643,9.5624418258667
1713723116681222986,0.17257283627986908,0.0511326938867569,-0.25672873854637146,1.8567034006118774,2.339134931564331,8.983044624328613
1713723116690222986,0.02130528911948204,0.09906959533691406,-0.24714134633541107,0.6560112833976746,3.5853168964385986,11.17972469329834
1713723116700222986,-0.12463594228029251,0.10546118021011353,-0.25353294610977173,-0.4213795065879822,3.1028852462768555,11.00015926361084
1713723116710222986,-0.22903186082839966,0.0788295716047287,-0.21092236042022705,-1.8567034006118774,0.6643909811973572,10.901997566223145
1713723116719222986,-0.09374327212572098,-0.05432848632335663,-0.25779399275779724,-4.175487518310547,-4.557363033294678,9.534908294677734
1713723116729222986,-0.05645901337265968,-0.11504855751991272,-0.09374327212572098,-2.578555107116699,-5.525817394256592,8.670600891113281
1713723116738222986,0.1065264418721199,-0.09161274135112762,-0.19600865244865417,1.6819266080856323,-1.3982137441635132,10.577583312988281
1713723116748222986,0.08522115647792816,0.037284255027770996,-0.13209278881549835,2.9089550971984863,0.6751648783683777,11.196483612060547
1713723116758222986,0.06711165606975555,0.14700649678707123,-0.1992044448852539,1.8471266031265259,1.016338586807251,10.310629844665527
1713723116767222986,0.023435818031430244,0.18855179846286774,-0.14274543523788452,-0.8547300100326538,0.416591078042984,9.68813705444336
1713723116777222986,0.049002163112163544,0.09587380290031433,-0.15552860498428345,-3.8151602745056152,-1.0019733905792236,9.582792282104492
1713723116786222986,0.02130528911948204,0.003195793367922306,-0.07137271761894226,-3.7864298820495605,-0.7338228225708008,9.361328125
1713723116796222986,0.041545312851667404,-0.06285060197114944,-0.07456851005554199,-1.9584569931030273,0.9445125460624695,9.47265911102295
1713723116805222986,-0.014913702383637428,-0.06924218684434891,-0.06285060197114944,-0.7050923705101013,1.3766659498214722,9.434351921081543
1713723116815222986,-0.04687163606286049,-0.03302319720387459,-0.04261057823896408,0.24899697303771973,1.2916717529296875,9.570820808410645
1713723116825222986,-0.07563377171754837,0.013848437927663326,-0.06285060197114944,0.5219359397888184,0.7661445140838623,9.498994827270508
1713723116835222986,-0.08522115647792816,0.029827404767274857,-0.041545312851667404,-0.43933600187301636,-0.13287819921970367,10.81700325012207
1713723116844222986,-0.03941478580236435,-0.023435818031430244,-0.05432848632335663,-2.4624364376068115,-2.6443958282470703,11.896787643432617
1713723116854222986,-0.013848437927663326,-0.0788295716047287,0.03834952041506767,-2.1595699787139893,-3.954024076461792,11.437101364135742
1713723116863222986,0.047936901450157166,-0.052197955548763275,0.02556634694337845,0.7146691679954529,-2.255337953567505,10.777499198913574
1713723116873222986,0.1161138266324997,0.030892668291926384,0.017044231295585632,1.8806453943252563,-1.013944387435913,9.066842079162598
1713723116883222986,0.13528858125209808,0.10439591109752655,0.002130528911948204,0.8056488633155823,-0.1975216418504715,8.100781440734863
1713723116892222986,0.12250541150569916,0.11291802674531937,0.006391586735844612,-0.9469067454338074,1.3120225667953491,8.981847763061523
1713723116902222986,0.05006742849946022,0.06178533658385277,0.02556634694337845,-2.3487117290496826,2.454056739807129,9.927556991577148
1713723116911222986,-0.06391586363315582,-0.019174760207533836,0.04687163606286049,-2.6455929279327393,2.52109432220459,10.614692687988281
1713723116921222986,-0.14168016612529755,-0.08522115647792816,0.07456851005554199,-1.7334020137786865,1.316810965538025,10.176553726196289
1713723116931222986,-0.12676647305488586,-0.11824434995651245,0.07563377171754837,-0.7445967197418213,-1.1001356840133667,9.193734169006348
1713723116940222986,-0.08522115647792816,-0.09587380290031433,0.09054747968912125,0.6356605291366577,-2.230198860168457,8.84178638458252
1713723116949222986,-0.013848437927663326,-0.029827404767274857,0.06072007119655609,2.117671251296997,-1.216254472732544,9.728838920593262
1713723116959222986,-0.00532632227987051,0.05006742849946022,0.044741105288267136,2.056619167327881,-0.31603461503982544,11.251550674438477
1713723116969222986,0.017044231295585632,0.05752427875995636,0.006391586735844612,-0.02274491637945175,-1.4652514457702637,12.343306541442871
1713723116978222986,0.03834952041506767,-0.011717909015715122,0.05006742849946022,-2.3810336589813232,-3.7421371936798096,11.835736274719238
1713723116988222986,0.0649811327457428,-0.05326322093605995,0.08948221057653427,-0.9229647517204285,-2.8095955848693848,10.517727851867676
1713723116997222986,0.16298545897006989,-0.022370552644133568,0.052197955548763275,1.5861586332321167,-0.7362170219421387,8.38569164276123
1713723117007222986,0.1533980816602707,0.05006742849946022,0.03621898964047432,1.5825673341751099,0.5961562395095825,7.730876922607422
1713723117017222986,0.1161138266324997,0.09374327212572098,0.029827404767274857,0.4668693244457245,2.3750481605529785,9.259574890136719
1713723117026222986,0.00532632227987051,0.08628641813993454,0.03195793181657791,-1.0199298858642578,3.205836057662964,10.224437713623047
1713723117036222986,-0.12463594228029251,0.02876213937997818,0.055393751710653305,-1.964442491531372,2.6850972175598145,10.736797332763672
1713723117046222986,-0.16405072808265686,-0.052197955548763275,0.06924218684434891,-2.603694200515747,0.27413609623908997,10.35372543334961
1713723117055222986,-0.10865697264671326,-0.12783172726631165,0.09054747968912125,-2.586934804916382,-3.002328872680664,8.916007041931152
1713723117065222986,-0.05752427875995636,-0.12783172726631165,0.12250541150569916,0.333991140127182,-2.7018566131591797,9.361328125
1713723117074222986,0.03302319720387459,-0.05965480953454971,0.05645901337265968,3.0633809566497803,-0.7481880187988281,10.448295593261719
1713723117084222986,0.01065264455974102,0.04367584362626076,0.052197955548763275,2.8826189041137695,-0.2861070930957794,10.78228759765625
1713723117094222986,-0.011717909015715122,0.09054747968912125,0.012783173471689224,0.9576806426048279,-0.4357447028160095,12.532448768615723
1713723117103222986,0.05326322093605995,0.03515372797846794,0.011717909015715122,-2.434903144836426,-2.9532477855682373,11.312602996826172
1713723117113222986,0.05006742849946022,-0.03621898964047432,0.09587380290031433,-2.4133553504943848,-3.356670618057251,9.471461296081543
1713723117122222986,0.14487595856189728,-0.06178533658385277,0.0511326938867569,0.37828385829925537,-0.8224082589149475,8.769960403442383
1713723117132222986,0.12250541150569916,-0.024501081556081772,0.06604639440774918,1.3299790620803833,1.01753568649292,8.69334602355957
1713723117142222986,0.09587380290031433,0.026631610468029976,0.034088462591171265,1.1719616651535034,2.2697031497955322,9.238027572631836
1713723117151222986,0.0,0.07243797928094864,0.06285060197114944,0.4297592043876648,2.737769603729248,9.459490776062012
1713723117161222986,-0.1022653877735138,0.07030745595693588,0.04580637067556381,-0.4800374209880829,2.491166830062866,10.11550235748291
1713723117169515048,-0.16405072808265686,0.03195793181657791,0.08096009492874146,-1.4616601467132568,0.9756371974945068,10.627861022949219
1713723117179515048,-0.09480853378772736,-0.052197955548763275,0.06604639440774918,-3.157952070236206,-2.626439332962036,9.841365814208984
1713723117188515048,-0.07989483326673508,-0.1161138266324997,0.13635385036468506,-1.942894697189331,-3.688267707824707,9.659406661987305
1713723117199515048,0.012783173471689224,-0.10972223430871964,0.09800432622432709,1.8519150018692017,-1.499967336654663,10.698490142822266
1713723117207515048,0.006391586735844612,-0.012783173471689224,0.07563377171754837,3.420117139816284,-0.5195417404174805,11.159374237060547
1713723117217515048,0.026631610468029976,0.09161274135112762,0.034088462591171265,2.677914619445801,-0.7362170219421387,11.060014724731445
1713723117227515048,0.08522115647792816,0.11398329585790634,0.022370552644133568,-0.3794809579849243,-2.1487960815429688,9.680953979492188
1713723117237515048,0.0884169489145279,0.07456851005554199,0.06285060197114944,-2.408566951751709,-1.890222191810608,9.294290542602539
1713723117246515048,0.11824434995651245,0.01065264455974102,0.07030745595693588,-1.8112136125564575,0.33518823981285095,9.563638687133789
1713723117255515048,0.06711165606975555,-0.034088462591171265,0.07776430249214172,-1.1061211824417114,1.7693150043487549,9.900023460388184
1713723117265515048,0.012783173471689224,-0.05645901337265968,0.07456851005554199,-0.3627215623855591,1.9393033981323242,9.659406661987305
1713723117275515048,-0.06391586363315582,-0.04048004746437073,0.09693906456232071,0.5123591423034668,1.3670891523361206,9.278728485107422
1713723117285515048,-0.10439591109752655,-0.002130528911948204,0.07563377171754837,1.037886381149292,0.6727706789970398,9.623493194580078
1713723117294515048,-0.09587380290031433,0.044741105288267136,0.08735168725252151,0.5805938839912415,-0.3519476354122162,10.092757225036621
1713723117303515048,-0.024501081556081772,0.024501081556081772,0.049002163112163544,-1.7142484188079834,-2.5546131134033203,10.67215347290039
1713723117313515048,-0.008522115647792816,-0.04048004746437073,0.1065264418721199,-2.433706045150757,-3.24414324760437,10.988188743591309
1713723117323515048,0.03195793181657791,-0.0884169489145279,0.09800432622432709,0.09696516394615173,-1.2832920551300049,10.96664047241211
1713723117333515048,0.04580637067556381,-0.055393751710653305,0.07137271761894226,2.0697872638702393,-0.19153612852096558,10.137049674987793
1713723117342515048,0.058589544147253036,0.02130528911948204,0.05965480953454971,2.316390037536621,-0.17717091739177704,8.898050308227539
1713723117352515048,0.044741105288267136,0.09374327212572098,0.04367584362626076,1.358709454536438,0.2825157940387726,8.9866361618042
1713723117361515048,0.013848437927663326,0.11078750342130661,0.03834952041506767,-0.325611412525177,0.970848798751831,10.105925559997559
1713723117371515048,-0.009587380103766918,0.05326322093605995,0.0511326938867569,-2.4432828426361084,0.4620809257030487,10.78228759765625
1713723117380515048,-0.019174760207533836,-0.05006742849946022,0.08415588736534119,-3.381809949874878,-0.9684545993804932,10.114304542541504
1713723117390515048,-0.023435818031430244,-0.1203748807311058,0.10865697264671326,-1.4293383359909058,-0.7529764175415039,9.59715747833252
1713723117399515048,0.012783173471689224,-0.10865697264671326,0.09161274135112762,1.115697979927063,-0.016759412363171577,9.321824073791504
1713723117409515048,0.008522115647792816,-0.026631610468029976,0.08096009492874146,2.1308395862579346,0.05027823522686958,9.08838939666748
1713723117419515048,-0.024501081556081772,0.06178533658385277,0.06924218684434891,1.7693150043487549,0.5770025849342346,10.380061149597168
1713723117428515048,-0.05326322093605995,0.09161274135112762,0.047936901450157166,-0.17956513166427612,0.1256955862045288,12.416329383850098
1713723117438515048,0.00532632227987051,0.002130528911948204,0.05645901337265968,-3.3865983486175537,-3.0310592651367188,11.300631523132324
1713723117448515048,-0.002130528911948204,-0.09374327212572098,0.13315805792808533,-2.433706045150757,-3.6332011222839355,9.425971984863281
1713723117457515048,0.11824434995651245,-0.11398329585790634,0.09161274135112762,1.3994108438491821,-1.1492167711257935,8.588001251220703
1713723117467515048,0.09906959533691406,-0.024501081556081772,0.09161274135112762,2.7521347999572754,0.6248866319656372,8.72806167602539
1713723117476515048,0.06817692518234253,0.07456851005554199,0.04580637067556381,2.3104045391082764,2.1104886531829834,10.223240852355957
1713723117486515048,-0.027696875855326653,0.12889699637889862,0.06072007119655609,0.5853822827339172,2.293645143508911,10.590750694274902
1713723117495515048,-0.11824434995651245,0.08735168725252151,0.049002163112163544,-1.9716250896453857,0.9660603404045105,12.223596572875977
1713723117506515048,-0.04687163606286049,-0.04367584362626076,0.09161274135112762,-4.2544965744018555,-3.0573954582214355,10.202890396118164
1713723117515515048,-0.029827404767274857,-0.1203748807311058,0.14487595856189728,-2.1045031547546387,-3.690661907196045,7.982268333435059
1713723117524515048,0.1161138266324997,-0.10333064943552017,0.10865697264671326,1.7190368175506592,-0.7936778664588928,8.176198959350586
1713723117534515048,0.07563377171754837,-0.004261057823896408,0.09054747968912125,2.6563668251037598,1.1312602758407593,9.422380447387695
1713723117544515048,0.017044231295585632,0.09374327212572098,0.07243797928094864,1.930923581123352,2.477998733520508,11.735179901123047
1713723117554515048,-0.10120011866092682,0.12463594228029251,0.06817692518234253,0.17836801707744598,1.7633295059204102,12.144587516784668
1713723117563515048,-0.05326322093605995,0.003195793367922306,0.06604639440774918,-3.4356794357299805,-2.5893290042877197,10.607510566711426
1713723117572515048,-0.026631610468029976,-0.11185276508331299,0.14168016612529755,-3.6990416049957275,-5.127182960510254,8.3306245803833
1713723117582515048,0.12144014239311218,-0.1299622654914856,0.12357067316770554,0.7433996200561523,-1.764526605606079,8.334216117858887
1713723117592515048,0.15446333587169647,-0.0511326938867569,0.08096009492874146,2.7964274883270264,1.3730746507644653,9.36013126373291
1713723117601515048,0.1022653877735138,0.04580637067556381,0.06391586363315582,2.2002713680267334,2.5115175247192383,10.26394271850586
1713723117611515048,-0.037284255027770996,0.11078750342130661,0.092678003013134,1.1348515748977661,2.7054479122161865,11.492168426513672
1713723117620515048,-0.16831177473068237,0.12144014239311218,0.08415588736534119,0.18914192914962769,1.722628116607666,11.443086624145508
1713723117630515048,-0.09800432622432709,0.027696875855326653,0.07669904083013535,-2.9676129817962646,-2.9939491748809814,9.288305282592773
1713723117640515048,-0.03302319720387459,-0.06391586363315582,0.14594122767448425,-3.794809579849243,-5.5545477867126465,7.568071365356445
1713723117649515048,0.12783172726631165,-0.08415588736534119,0.13315805792808533,0.25019407272338867,-1.6519991159439087,8.811859130859375
1713723117659515048,0.11824434995651245,-0.02130528911948204,0.10120011866092682,2.2864625453948975,2.115277051925659,11.801019668579102
1713723117668515048,0.03515372797846794,0.05326322093605995,0.0649811327457428,1.7046716213226318,2.7246015071868896,12.015300750732422
1713723117678515048,-0.13741911947727203,0.08202536404132843,0.09906959533691406,0.6248866319656372,1.5562310218811035,11.137825965881348
1713723117687515048,-0.08735168725252151,-0.002130528911948204,0.030892668291926384,-2.4444799423217773,-2.6623523235321045,10.147823333740234
1713723117697515048,-0.011717909015715122,-0.08948221057653427,0.14487595856189728,-3.2980127334594727,-5.752069473266602,7.747636795043945
1713723117707515048,0.14487595856189728,-0.09800432622432709,0.1161138266324997,0.7876923680305481,-2.3247697353363037,8.452729225158691
1713723117716515048,0.2045307755470276,-0.023435818031430244,0.07989483326673508,2.6862943172454834,1.4496891498565674,10.125079154968262
1713723117726515048,0.13315805792808533,0.058589544147253036,0.06391586363315582,1.7298107147216797,2.896984100341797,10.356119155883789
1713723117735515048,-0.034088462591171265,0.1022653877735138,0.092678003013134,0.7374141216278076,3.446453332901001,11.660959243774414
1713723117745515048,-0.18002969026565552,0.092678003013134,0.08415588736534119,-0.08619125932455063,2.212242364883423,11.077971458435059
1713723117755515048,-0.17789916694164276,0.041545312851667404,0.092678003013134,-2.343923330307007,-1.5167267322540283,9.41759204864502
1713723117764515048,-0.05965480953454971,-0.06391586363315582,0.10333064943552017,-3.712209701538086,-5.299565315246582,7.979874134063721
1713723117774515048,0.034088462591171265,-0.08948221057653427,0.16831177473068237,-0.3423708379268646,-2.936488389968872,9.446322441101074
1713723117783515048,0.11291802674531937,-0.04261057823896408,0.07776430249214172,2.5318682193756104,0.8104372620582581,11.865663528442383
1713723117793515048,0.03515372797846794,0.04687163606286049,0.08735168725252151,2.4372973442077637,0.8188169598579407,11.285069465637207
1713723117803515048,-0.07137271761894226,0.09054747968912125,0.06711165606975555,1.4748282432556152,0.4824316203594208,11.161767959594727
1713723117812515048,0.008522115647792816,0.049002163112163544,0.026631610468029976,-1.4496891498565674,-2.2864625453948975,9.561244010925293
1713723117823515048,0.03302319720387459,-0.009587380103766918,0.1161138266324997,-2.4001872539520264,-3.487154722213745,8.183381080627441
1713723117831515048,0.15446333587169647,-0.049002163112163544,0.05432848632335663,-0.1364694982767105,-0.5829880833625793,8.467094421386719
1713723117841515048,0.11717908829450607,-0.023435818031430244,0.092678003013134,1.01753568649292,2.0458452701568604,9.742006301879883
1713723117851515048,0.026631610468029976,0.009587380103766918,0.02556634694337845,1.278503656387329,3.1268274784088135,11.004947662353516
1713723117860515048,-0.10865697264671326,0.041545312851667404,0.06604639440774918,1.1659761667251587,2.412158250808716,10.746374130249023
1713723117870515048,-0.185356006026268,0.044741105288267136,0.024501081556081772,0.5422866940498352,0.3064578175544739,10.970232009887695
1713723117880515048,-0.05645901337265968,-0.011717909015715122,0.026631610468029976,-2.275688648223877,-4.19464111328125,9.175777435302734
1713723117889515048,-0.011717909015715122,-0.05645901337265968,0.10013485699892044,-2.076969861984253,-4.8482584953308105,8.983044624328613
1713723117899515048,0.1342233121395111,-0.05965480953454971,0.03515372797846794,1.2976572513580322,-0.9852139949798584,10.346542358398438
1713723117908515048,0.07137271761894226,0.012783173471689224,0.0511326938867569,2.2194249629974365,1.2006921768188477,11.57357120513916
1713723117918515048,0.012783173471689224,0.06072007119655609,-0.02130528911948204,1.886630892753601,1.404199242591858,11.534066200256348
1713723117927515048,-0.04048004746437073,0.08096009492874146,0.01810949482023716,0.45489832758903503,-0.03232172131538391,9.892841339111328
1713723117937515048,0.02130528911948204,0.02556634694337845,-0.03834952041506767,-1.9141641855239868,-2.3104045391082764,8.574832916259766
1713723117947515048,0.041545312851667404,-0.020240023732185364,0.0511326938867569,-1.964442491531372,-1.8363527059555054,8.644265174865723
1713723117956515048,0.10972223430871964,-0.05006742849946022,-0.008522115647792816,-0.12689268589019775,0.5889735817909241,9.496601104736328
1713723117966515048,0.047936901450157166,-0.034088462591171265,0.023435818031430244,0.6332663297653198,1.6555904150009155,9.799467086791992
1713723117975515048,-0.04580637067556381,-0.017044231295585632,0.0,1.01753568649292,2.078166961669922,11.103110313415527
1713723117985515048,-0.11824434995651245,0.014913702383637428,0.006391586735844612,1.0283095836639404,1.1288660764694214,10.791864395141602
1713723117994515048,-0.09161274135112762,0.02130528911948204,0.0,-0.5051765441894531,-1.647210717201233,10.099939346313477
1713723118004515048,-0.003195793367922306,-0.014913702383637428,0.007456851191818714,-1.9919757843017578,-4.191050052642822,9.380481719970703
1713723118014515048,0.06604639440774918,-0.017044231295585632,0.05965480953454971,-0.4572925269603729,-2.270900249481201,10.091560363769531
1713723118023515048,0.12463594228029251,-0.001065264455974102,-0.01065264455974102,1.0259153842926025,0.4381389021873474,10.753557205200195
1713723118034515048,0.05965480953454971,0.02556634694337845,0.019174760207533836,0.6703764796257019,0.7805097699165344,10.166976928710938
1713723118042515048,-0.029827404767274857,0.03302319720387459,-0.00532632227987051,0.15801730751991272,0.9660603404045105,10.705672264099121
1713723118052515048,-0.044741105288267136,0.013848437927663326,0.00532632227987051,-0.47165772318840027,0.06344634294509888,10.110713958740234
1713723118062515048,-0.01810949482023716,-0.02130528911948204,0.01065264455974102,-0.9421183466911316,-1.521515130996704,8.632293701171875
1713723118071515048,0.007456851191818714,-0.02876213937997818,0.01810949482023716,-0.14245499670505524,-1.1899182796478271,9.115922927856445
1713723118081515048,0.0511326938867569,-0.013848437927663326,0.01065264455974102,0.7972691655158997,0.040701426565647125,9.859322547912598
1713723118090515048,0.027696875855326653,0.008522115647792816,0.003195793367922306,0.6200982332229614,0.6153098344802856,9.988609313964844
1713723118100515048,-0.019174760207533836,0.02556634694337845,0.004261057823896408,0.08738835901021957,0.9145850539207458,10.432733535766602
1713723118110515048,-0.058589544147253036,0.020240023732185364,-0.002130528911948204,-0.5770025849342346,0.42018237709999084,10.72482681274414
1713723118120515048,-0.026631610468029976,-0.015978965908288956,0.007456851191818714,-1.5131354331970215,-1.316810965538025,9.947907447814941
1713723118129515048,-0.015978965908288956,-0.03621898964047432,0.029827404767274857,-1.0785878896713257,-1.725022315979004,9.297882080078125
1713723118139515048,0.03515372797846794,-0.029827404767274857,0.014913702383637428,0.2992752194404602,-0.42018237709999084,9.739612579345703
1713723118148515048,0.004261057823896408,-0.011717909015715122,0.013848437927663326,0.6607996821403503,0.3148375153541565,10.735600471496582
1713723118158515048,-0.034088462591171265,-0.00532632227987051,0.004261057823896408,0.48722004890441895,0.1149216815829277,11.70046329498291
1713723118168515048,-0.003195793367922306,-0.034088462591171265,-0.004261057823896408,-0.6368576288223267,-2.070984363555908,10.620678901672363
1713723118177515048,0.017044231295585632,-0.05432848632335663,0.034088462591171265,-0.2932896912097931,-2.934094190597534,9.349357604980469
1713723118187515048,0.11717908829450607,-0.024501081556081772,0.008522115647792816,1.544260025024414,-1.282094955444336,8.78073501586914
1713723118196515048,0.12676647305488586,0.044741105288267136,-0.006391586735844612,1.6843209266662598,0.4620809257030487,9.149441719055176
1713723118206515048,0.11078750342130661,0.08096009492874146,-0.024501081556081772,0.5219359397888184,1.7717092037200928,9.439140319824219
1713723118215515048,0.012783173471689224,0.07243797928094864,-0.007456851191818714,-0.9217676520347595,2.477998733520508,9.849745750427246
1713723118225515048,-0.09480853378772736,0.017044231295585632,-0.01065264455974102,-1.7992424964904785,2.316390037536621,10.649409294128418
1713723118235515048,-0.15233281254768372,-0.055393751710653305,0.014913702383637428,-1.9488801956176758,0.628477931022644,10.56920337677002
1713723118244515048,-0.11078750342130661,-0.1161138266324997,0.023435818031430244,-1.578976035118103,-2.1296424865722656,9.404423713684082
1713723118254515048,-0.06285060197114944,-0.09693906456232071,0.05645901337265968,0.7098807692527771,-2.558204412460327,9.068038940429688
1713723118263515048,0.022370552644133568,-0.013848437927663326,0.012783173471689224,2.825157880783081,-1.0965443849563599,10.053253173828125
1713723118273515048,0.011717909015715122,0.07776430249214172,0.00532632227987051,2.390610456466675,-0.39384618401527405,11.05522632598877
1713723118282515048,0.017044231295585632,0.08309062570333481,-0.02556634694337845,-0.14484919607639313,-1.1851298809051514,12.348094940185547
1713723118292515048,0.052197955548763275,0.00532632227987051,0.003195793367922306,-2.522291421890259,-3.3291373252868652,11.128249168395996
1713723118302515048,0.07563377171754837,-0.047936901450157166,0.05965480953454971,-0.8283937573432922,-2.1715409755706787,10.068815231323242
1713723118311515048,0.17044231295585632,-0.027696875855326653,-0.004261057823896408,1.6340426206588745,-0.033518824726343155,8.672995567321777
1713723118321515048,0.148071750998497,0.044741105288267136,0.003195793367922306,1.6567875146865845,0.8248024582862854,7.449558258056641
1713723118331515048,0.08096009492874146,0.08522115647792816,-0.020240023732185364,0.6607996821403503,2.5665841102600098,8.938752174377441
1713723118340515048,-0.017044231295585632,0.08202536404132843,-0.014913702383637428,-0.6835445761680603,3.4727895259857178,9.773131370544434
1713723118350515048,-0.1438107043504715,0.04261057823896408,-0.004261057823896408,-1.6041151285171509,2.9233202934265137,10.062829971313477
1713723118359515048,-0.22583605349063873,-0.017044231295585632,0.008522115647792816,-1.766920804977417,1.1348515748977661,10.63504409790039
1713723118369515048,-0.15659387409687042,-0.09906959533691406,0.022370552644133568,-2.428917646408081,-2.6120738983154297,9.720458984375
1713723118378515048,-0.11398329585790634,-0.12144014239311218,0.06924218684434891,-0.9050082564353943,-3.950432777404785,9.48343276977539
1713723118389515048,-0.002130528911948204,-0.05752427875995636,0.03621898964047432,2.404975652694702,-1.7262194156646729,10.989385604858398
1713723118397515048,0.003195793367922306,0.04687163606286049,0.013848437927663326,3.139995574951172,-0.6260837316513062,12.142193794250488
1713723118407515048,0.05432848632335663,0.07989483326673508,-0.02876213937997818,0.9074024558067322,-2.2685060501098633,11.923124313354492
1713723118417515048,0.09054747968912125,0.047936901450157166,0.01810949482023716,-1.4508862495422363,-4.128800868988037,10.178948402404785
1713723118426515048,0.14913702011108398,0.02556634694337845,0.041545312851667404,-0.42856210470199585,-1.9907786846160889,9.618704795837402
1713723118436515048,0.21411815285682678,0.049002163112163544,0.0,0.7864952683448792,0.811634361743927,8.945934295654297
1713723118446515048,0.1768338978290558,0.06604639440774918,0.004261057823896408,0.05746084079146385,2.056619167327881,7.710526466369629
1713723118455515048,0.05432848632335663,0.04261057823896408,0.00532632227987051,-0.7984662652015686,3.5709517002105713,8.559270858764648
1713723118465515048,-0.09161274135112762,0.004261057823896408,0.00532632227987051,-1.1552022695541382,4.134786128997803,10.030508041381836
1713723118474515048,-0.22796659171581268,-0.029827404767274857,0.015978965908288956,-0.8032546639442444,2.847902774810791,10.326191902160645
1713723118484515048,-0.27590349316596985,-0.04580637067556381,0.01810949482023716,-0.30286651849746704,0.15562310814857483,10.469843864440918
1713723118494515048,-0.148071750998497,-0.08096009492874146,0.007456851191818714,-1.3730746507644653,-4.37420654296875,9.465476036071777
1713723118503515048,-0.07350324839353561,-0.07030745595693588,0.07030745595693588,-0.37229835987091064,-5.25527286529541,9.604339599609375
1713723118513515048,0.06178533658385277,-0.011717909015715122,0.012783173471689224,2.5246856212615967,-1.7836802005767822,11.455058097839355
1713723118523515048,0.041545312851667404,0.0788295716047287,0.006391586735844612,2.6791117191314697,0.06584054231643677,12.49174690246582
1713723118532515048,0.04687163606286049,0.10120011866092682,-0.03941478580236435,0.31124621629714966,-0.7852981686592102,12.139799118041992
1713723118541515048,0.07989483326673508,0.04367584362626076,0.002130528911948204,-2.2457611560821533,-2.9221231937408447,9.319430351257324
1713723118551515048,0.10546118021011353,-0.012783173471689224,0.037284255027770996,-1.2880804538726807,-1.6962919235229492,8.503006935119629
1713723118561515048,0.1672465205192566,-0.01810949482023716,0.002130528911948204,0.6033388376235962,0.8283937573432922,8.616731643676758
1713723118570515048,0.1161138266324997,0.011717909015715122,0.009587380103766918,0.7266402244567871,1.9740192890167236,8.190564155578613
1713723118580515048,0.00532632227987051,0.03195793181657791,0.003195793367922306,0.37469255924224854,3.2178070545196533,9.478644371032715
1713723118589515048,-0.1203748807311058,0.037284255027770996,-0.00532632227987051,-0.09816227108240128,3.2405519485473633,10.381258010864258
1713723118599515048,-0.22477079927921295,0.030892668291926384,0.01065264455974102,-0.3603273630142212,1.8076221942901611,10.483012199401855
1713723118609515048,-0.17257283627986908,-0.019174760207533836,-0.002130528911948204,-1.722628116607666,-1.9261351823806763,9.866504669189453
1713723118618515048,-0.09587380290031433,-0.07776430249214172,0.047936901450157166,-2.321178436279297,-4.673481464385986,9.0859956741333
1713723118628515048,0.003195793367922306,-0.07030745595693588,0.06072007119655609,0.6248866319656372,-2.298433542251587,10.506954193115234
1713723118637515048,0.05645901337265968,0.007456851191818714,0.006391586735844612,2.7246015071868896,0.15682020783424377,11.761515617370605
1713723118647515048,0.00532632227987051,0.08735168725252151,-0.001065264455974102,2.0183119773864746,0.011971008032560349,11.15697956085205
1713723118657515048,-0.004261057823896408,0.08202536404132843,-0.026631610468029976,-0.5183446407318115,-1.5765818357467651,10.991780281066895
1713723118666515048,0.047936901450157166,0.007456851191818714,0.004261057823896408,-2.40736985206604,-3.377021551132202,9.433154106140137
1713723118676515048,0.10120011866092682,-0.03621898964047432,0.047936901450157166,-0.8164227604866028,-1.5945383310317993,9.010578155517578
1713723118686515048,0.1619201898574829,-0.026631610468029976,-0.019174760207533836,0.8403647541999817,1.0127472877502441,9.070432662963867
1713723118696515048,0.10439591109752655,0.011717909015715122,0.009587380103766918,0.8271966576576233,2.036268472671509,8.372523307800293
1713723118705515048,-0.027696875855326653,0.037284255027770996,-0.012783173471689224,0.45010989904403687,3.178302764892578,10.234015464782715
1713723118714515048,-0.14700649678707123,0.04048004746437073,-0.017044231295585632,-0.02513911761343479,2.8335375785827637,10.990582466125488
1713723118724515048,-0.22903186082839966,0.019174760207533836,0.011717909015715122,-0.6488286256790161,0.6141127347946167,10.880449295043945
1713723118734515048,-0.12357067316770554,-0.052197955548763275,-0.012783173471689224,-2.474407434463501,-3.732560396194458,9.581595420837402
1713723118743515048,-0.07563377171754837,-0.07563377171754837,0.08628641813993454,-1.3431471586227417,-4.665102005004883,9.002198219299316
1713723118753515048,0.05645901337265968,-0.037284255027770996,0.013848437927663326,2.0219032764434814,-1.4676456451416016,10.431536674499512
1713723118762515048,0.02876213937997818,0.058589544147253036,0.024501081556081772,2.470816135406494,0.26336216926574707,11.720813751220703
1713723118772515048,0.001065264455974102,0.09800432622432709,-0.023435818031430244,0.9433154463768005,0.05386953800916672,12.42590618133545
1713723118782515048,0.0511326938867569,0.05645901337265968,-0.008522115647792816,-1.91057288646698,-2.5510218143463135,10.044873237609863
1713723118791515048,0.052197955548763275,0.002130528911948204,0.0511326938867569,-1.8351556062698364,-2.476801633834839,8.494627952575684
1713723118801515048,0.14913702011108398,-0.01810949482023716,0.007456851191818714,0.24899697303771973,0.020350713282823563,7.987056732177734
1713723118810515048,0.09374327212572098,0.007456851191818714,0.026631610468029976,0.6452373266220093,1.7381904125213623,8.670600891113281
1713723118820515048,0.019174760207533836,0.023435818031430244,-0.012783173471689224,0.49559974670410156,3.0753519535064697,10.183736801147461
1713723118830515048,-0.11078750342130661,0.027696875855326653,0.012783173471689224,0.015562310814857483,2.865859270095825,10.48061752319336
1713723118839515048,-0.21518342196941376,0.013848437927663326,-0.007456851191818714,-0.23104046285152435,1.404199242591858,10.736797332763672
1713723118849515048,-0.14487595856189728,-0.04261057823896408,-0.001065264455974102,-1.601720929145813,-2.693476915359497,9.870096206665039
1713723118858515048,-0.07776430249214172,-0.07989483326673508,0.05006742849946022,-1.7393875122070312,-5.058948040008545,9.138668060302734
1713723118868515048,0.04687163606286049,-0.05006742849946022,0.04261057823896408,1.3611036539077759,-2.321178436279297,10.104727745056152
1713723118878515048,0.08628641813993454,0.04261057823896408,0.00532632227987051,2.919728994369507,0.31842881441116333,11.353303909301758
1713723118887515048,0.05006742849946022,0.1257012039422989,-0.019174760207533836,1.7705121040344238,0.6883329749107361,11.133037567138672
1713723118897515048,-0.017044231295585632,0.13102751970291138,-0.013848437927663326,-0.872686505317688,-0.06464344263076782,11.549629211425781
1713723118906515048,0.029827404767274857,0.023435818031430244,-0.012783173471689224,-3.6152443885803223,-2.3977930545806885,9.745597839355469
1713723118917515048,0.026631610468029976,-0.06072007119655609,0.05965480953454971,-2.492363929748535,-2.0673930644989014,8.429984092712402
1713723118925515048,0.10865697264671326,-0.08948221057653427,0.00532632227987051,0.3663128614425659,0.3711012601852417,8.604761123657227
1713723118935515048,0.05326322093605995,-0.047936901450157166,0.019174760207533836,1.4688427448272705,1.48081374168396,8.649053573608398
1713723118944515048,-0.029827404767274857,0.011717909015715122,-0.01065264455974102,1.746570110321045,2.5067291259765625,10.289081573486328
1713723118955515048,-0.1342233121395111,0.06285060197114944,-0.020240023732185364,1.1851298809051514,2.2230162620544434,10.890026092529297
1713723118964515048,-0.17470337450504303,0.05326322093605995,-0.019174760207533836,-1.1659761667251587,-0.25498247146606445,12.339715003967285
1713723118973515048,-0.0511326938867569,-0.06072007119655609,-0.022370552644133568,-4.389768600463867,-5.408501625061035,10.647014617919922
1713723118983515048,-0.004261057823896408,-0.12357067316770554,0.09800432622432709,-1.9057844877243042,-5.274426460266113,9.465476036071777
1713723118993515048,0.1768338978290558,-0.1022653877735138,-0.004261057823896408,2.673126220703125,-1.2653355598449707,9.17817211151123
1713723119002515048,0.12889699637889862,0.007456851191818714,0.020240023732185364,3.3051953315734863,0.7876923680305481,9.412803649902344
1713723119012515048,0.07776430249214172,0.1065264418721199,-0.04367584362626076,2.254140853881836,2.300827741622925,10.668562889099121
1713723119022515048,-0.034088462591171265,0.14700649678707123,-0.007456851191818714,0.2932896912097931,2.233790159225464,9.795876502990723
1713723119031515048,-0.12357067316770554,0.1022653877735138,-0.019174760207533836,-1.8950105905532837,1.2773065567016602,10.623072624206543
1713723119041515048,-0.06391586363315582,-0.024501081556081772,0.0,-4.015076160430908,-1.9752163887023926,9.522936820983887
1713723119051515048,-0.06072007119655609,-0.11398329585790634,0.05965480953454971,-2.5713725090026855,-2.804807186126709,8.633491516113281
1713723119060515048,0.04687163606286049,-0.13209278881549835,0.015978965908288956,0.8978255987167358,-0.5099649429321289,8.864531517028809
1713723119069515048,0.014913702383637428,-0.058589544147253036,0.007456851191818714,2.2649147510528564,0.9792284965515137,9.804255485534668
1713723119079515048,-0.022370552644133568,0.023435818031430244,-0.01810949482023716,2.300827741622925,1.6915035247802734,11.119869232177734
1713723119088515048,-0.11291802674531937,0.0884169489145279,-0.009587380103766918,1.43532395362854,1.0678139925003052,11.119869232177734
1713723119098515048,-0.06604639440774918,0.04580637067556381,-0.030892668291926384,-2.233790159225464,-2.759317398071289,11.604695320129395
1713723119108515048,0.012783173471689224,-0.06285060197114944,0.04048004746437073,-4.649539470672607,-6.259640216827393,10.06163215637207
1713723119117515048,0.11185276508331299,-0.11398329585790634,0.07989483326673508,-0.7864952683448792,-2.9496564865112305,9.988609313964844
1713723119127515048,0.20985709130764008,-0.07989483326673508,0.00532632227987051,2.7114334106445312,0.8355763554573059,9.715670585632324
1713723119137515048,0.14700649678707123,0.015978965908288956,0.0,2.5438392162323,1.667561411857605,8.821435928344727
1713723119146515048,0.026631610468029976,0.07669904083013535,-0.012783173471689224,1.302445650100708,2.583343505859375,10.073603630065918
1713723119156515048,-0.07776430249214172,0.09374327212572098,-0.003195793367922306,-0.047884032130241394,2.450465440750122,9.97065258026123
1713723119166515048,-0.17363810539245605,0.07776430249214172,0.017044231295585632,-0.9636661410331726,1.338358759880066,9.512163162231445
1713723119175515048,-0.11930961906909943,-0.015978965908288956,-0.022370552644133568,-2.8586766719818115,-1.6160861253738403,8.866926193237305
1713723119184515048,-0.10013485699892044,-0.10120011866092682,0.06817692518234253,-2.560598611831665,-2.919728994369507,8.842984199523926
1713723119194515048,-0.003195793367922306,-0.12357067316770554,0.022370552644133568,0.7254431247711182,-0.7793126106262207,9.908403396606445
1713723119204515048,-0.027696875855326653,-0.04261057823896408,0.041545312851667404,2.5773580074310303,0.6428431272506714,11.79144287109375
1713723119213515048,-0.06178533658385277,0.0511326938867569,-0.007456851191818714,2.7042508125305176,0.23343466222286224,12.064382553100586
1713723119223515048,-0.013848437927663326,0.07137271761894226,-0.007456851191818714,-0.590170681476593,-3.4320881366729736,11.525687217712402
1713723119233515048,0.08309062570333481,-0.004261057823896408,0.013848437927663326,-3.75291109085083,-6.517016887664795,10.134655952453613
1713723119242515048,0.17363810539245605,-0.058589544147253036,0.07563377171754837,-1.301248550415039,-2.9017724990844727,9.872490882873535
1713723119252515048,0.27483823895454407,-0.058589544147253036,-0.001065264455974102,1.7070658206939697,1.316810965538025,9.343372344970703
1713723119261515048,0.19600865244865417,0.011717909015715122,0.0,1.6364368200302124,2.389413356781006,7.8948798179626465
1713723119271515048,0.04687163606286049,0.04580637067556381,-0.011717909015715122,0.4836287498474121,3.758896589279175,9.621099472045898
1713723119281515048,-0.08628641813993454,0.03834952041506767,0.002130528911948204,-0.4321534037590027,3.6846764087677,9.945513725280762
1713723119290515048,-0.23542344570159912,0.02130528911948204,0.04367584362626076,-0.447715699672699,2.3080103397369385,9.84495735168457
1713723119300515048,-0.25779399275779724,0.003195793367922306,-0.003195793367922306,-0.6404489278793335,-0.015562310814857483,10.285490036010742
1713723119309515048,-0.12463594228029251,-0.06924218684434891,0.019174760207533836,-2.3977930545806885,-4.387374401092529,8.616731643676758
1713723119319515048,-0.08309062570333481,-0.10120011866092682,0.07030745595693588,-0.6919242739677429,-4.092887878417969,9.57321548461914
1713723119328515048,0.0649811327457428,-0.0511326938867569,0.020240023732185364,2.7676970958709717,-0.773327112197876,10.963048934936523
1713723119338515048,0.001065264455974102,0.055393751710653305,0.02130528911948204,3.008314371109009,0.21787235140800476,11.648987770080566
1713723119348515048,-0.024501081556081772,0.11717908829450607,-0.02130528911948204,0.8930371999740601,-0.30526071786880493,13.692439079284668
1713723119358515048,0.08202536404132843,0.047936901450157166,-0.026631610468029976,-3.5446155071258545,-4.46638298034668,11.034875869750977
1713723119367515048,0.08309062570333481,-0.05326322093605995,0.06178533658385277,-3.4165258407592773,-4.72495698928833,8.652645111083984
1713723119377515048,0.23435817658901215,-0.1161138266324997,0.017044231295585632,0.33758243918418884,-0.7757213115692139,8.090007781982422
1713723119386515048,0.1672465205192566,-0.06285060197114944,0.023435818031430244,1.7202339172363281,1.9572598934173584,8.951919555664062
1713723119396515048,0.1257012039422989,-0.002130528911948204,-0.047936901450157166,1.434126853942871,3.3016040325164795,9.11352825164795
1713723119405515048,-0.02130528911948204,0.03302319720387459,0.03621898964047432,0.6392518281936646,3.446453332901001,8.913612365722656
1713723119415515048,-0.13102751970291138,0.03621898964047432,-0.02130528911948204,0.34596213698387146,3.1196448802948,9.81024169921875
1713723119424515048,-0.21624867618083954,0.047936901450157166,0.049002163112163544,0.3411737382411957,1.7405846118927002,9.277531623840332
1713723119434515048,-0.222640261054039,0.037284255027770996,-0.012783173471689224,-0.6536170244216919,-0.37828385829925537,10.522516250610352
1713723119444515048,-0.10972223430871964,-0.03515372797846794,0.013848437927663326,-2.8335375785827637,-4.018667697906494,9.974244117736816
1713723119453515048,-0.0884169489145279,-0.08735168725252151,0.07776430249214172,-1.138442873954773,-4.077325344085693,10.618284225463867
1713723119463515048,-0.001065264455974102,-0.05645901337265968,0.02556634694337845,2.3247697353363037,-1.625662922859192,12.385205268859863
1713723119472515048,0.017044231295585632,0.019174760207533836,0.012783173471689224,1.790862798690796,-2.2912509441375732,12.070367813110352
1713723119482515048,0.10865697264671326,0.030892668291926384,-0.02556634694337845,-0.5530605912208557,-4.20541524887085,10.736797332763672
1713723119492515048,0.15978966653347015,0.03302319720387459,0.052197955548763275,-0.3902548849582672,-2.583343505859375,9.44991397857666
1713723119501515048,0.260989785194397,0.02130528911948204,-0.03195793181657791,0.7685387134552002,0.35913026332855225,8.090007781982422
1713723119511515048,0.19387812912464142,0.044741105288267136,0.022370552644133568,0.363918662071228,2.0183119773864746,7.599195957183838
1713723119520515048,0.0788295716047287,0.044741105288267136,-0.009587380103766918,-0.033518824726343155,4.0749311447143555,9.275136947631836
1713723119530515048,-0.07350324839353561,0.03834952041506767,0.020240023732185364,-0.40940847992897034,4.485536575317383,9.527725219726562
1713723119540515048,-0.22477079927921295,0.020240023732185364,0.01810949482023716,-0.6979097723960876,3.24414324760437,9.627084732055664
1713723119549515048,-0.2865561246871948,-0.012783173471689224,0.019174760207533836,-0.7398083209991455,0.8774749040603638,9.87967300415039
1713723119559515048,-0.1949433982372284,-0.0884169489145279,0.015978965908288956,-1.9955670833587646,-3.1711201667785645,9.029731750488281
1713723119568515048,-0.1533980816602707,-0.11824434995651245,0.07030745595693588,-0.9528922438621521,-4.387374401092529,10.035296440124512
1713723119579515048,-0.04367584362626076,-0.06072007119655609,0.04367584362626076,2.693476915359497,-2.0434510707855225,12.354080200195312
1713723119587515048,-0.003195793367922306,0.0511326938867569,0.006391586735844612,2.6815059185028076,-2.0829553604125977,13.758279800415039
1713723119597515048,0.11398329585790634,0.07563377171754837,-0.037284255027770996,-0.8403647541999817,-5.257667064666748,12.342109680175781
1713723119607515048,0.16511598229408264,0.04580637067556381,0.06072007119655609,-1.5418658256530762,-5.070919036865234,9.59835433959961
1713723119617515048,0.29401299357414246,0.008522115647792816,0.006391586735844612,0.2693476974964142,-1.1480196714401245,7.934384346008301
1713723119626515048,0.2514024078845978,0.020240023732185364,0.017044231295585632,0.39863458275794983,2.0649988651275635,7.882908821105957
1713723119636515048,0.17257283627986908,0.03302319720387459,-0.00532632227987051,-0.02992752008140087,4.325125217437744,8.233659744262695
1713723119645515048,-0.007456851191818714,0.02876213937997818,0.02130528911948204,-0.30526071786880493,5.263652324676514,8.434772491455078
1713723119655515048,-0.20026971399784088,0.014913702383637428,0.014913702383637428,-0.21547815203666687,4.764461517333984,9.769539833068848
1713723119664795118,-0.3387540876865387,0.011717909015715122,0.030892668291926384,-0.07062894850969315,2.579752206802368,10.074800491333008
1713723119674795118,-0.2972087860107422,-0.03515372797846794,0.008522115647792816,-2.1057002544403076,-1.8064250946044922,10.512939453125
1713723119684795118,-0.15233281254768372,-0.13741911947727203,0.03834952041506767,-3.33512282371521,-6.852205276489258,10.216058731079102
1713723119693795118,-0.011717909015715122,-0.10972223430871964,0.1299622654914856,1.8626888990402222,-5.809530258178711,10.973823547363281
1713723119703795118,0.09374327212572098,-0.00532632227987051,-0.04261057823896408,5.035006046295166,-1.6208745241165161,12.530054092407227
1713723119713795118,0.07350324839353561,0.148071750998497,0.03941478580236435,3.2537200450897217,-0.47884032130241394,11.91354751586914
1713723119722795118,0.07350324839353561,0.19174760580062866,-0.06711165606975555,-0.15921440720558167,-1.434126853942871,11.228805541992188
1713723119731795118,0.12889699637889862,0.10439591109752655,0.029827404767274857,-3.706224203109741,-3.1902737617492676,8.593986511230469
1713723119741795118,0.1395496428012848,0.001065264455974102,0.03621898964047432,-2.650381326675415,-1.0893617868423462,8.285135269165039
1713723119751795118,0.17896442115306854,-0.052197955548763275,0.03621898964047432,-0.4884171485900879,2.072181463241577,8.771158218383789
1713723119761795118,0.07456851005554199,-0.047936901450157166,0.034088462591171265,0.304063618183136,2.9652187824249268,8.29471206665039
1713723119770795118,-0.06711165606975555,-0.01810949482023716,0.024501081556081772,0.8643068075180054,3.5865139961242676,10.02452278137207
1713723119780795118,-0.1896170675754547,0.019174760207533836,0.03195793181657791,0.9684545993804932,2.736572504043579,10.304643630981445
1713723119789795118,-0.25672873854637146,0.04580637067556381,0.014913702383637428,0.5973533391952515,0.48123452067375183,10.747570991516113
1713723119799795118,-0.11078750342130661,-0.01810949482023716,-0.007456851191818714,-2.3726539611816406,-4.412513732910156,9.509769439697266
1713723119808795118,-0.06817692518234253,-0.07456851005554199,0.09161274135112762,-2.31758713722229,-5.4228668212890625,9.075221061706543
1713723119818795118,0.08309062570333481,-0.07137271761894226,0.03515372797846794,1.7154455184936523,-1.3611036539077759,10.691307067871094
1713723119828795118,0.03621898964047432,0.02876213937997818,0.05645901337265968,3.0609867572784424,0.7841010689735413,12.149375915527344
1713723119838795118,-0.00532632227987051,0.12463594228029251,-0.012783173471689224,2.3343465328216553,0.6619967818260193,11.818976402282715
1713723119847795118,0.023435818031430244,0.11824434995651245,0.012783173471689224,-1.3311761617660522,-2.4001872539520264,10.439916610717773
1713723119857795118,0.06817692518234253,0.014913702383637428,0.023435818031430244,-3.6332011222839355,-4.2951979637146,8.893261909484863
1713723119866795118,0.1438107043504715,-0.058589544147253036,0.07989483326673508,-1.3634978532791138,-1.2629413604736328,8.84178638458252
1713723119875795118,0.1715075671672821,-0.05645901337265968,0.02556634694337845,0.9804255962371826,1.7932569980621338,9.48462963104248
1713723119886795118,0.09693906456232071,0.00532632227987051,0.02130528911948204,1.525106430053711,2.4899697303771973,8.656235694885254
1713723119895795118,-0.04687163606286049,0.05006742849946022,0.022370552644133568,1.035492181777954,2.8993782997131348,9.791088104248047
1713723119904795118,-0.14061491191387177,0.07563377171754837,0.015978965908288956,0.4824316203594208,2.2828712463378906,9.940725326538086
1713723119914795118,-0.22583605349063873,0.08948221057653427,0.04687163606286049,-0.03711012750864029,0.9062053561210632,9.543288230895996
1713723119924795118,-0.13102751970291138,0.013848437927663326,-0.026631610468029976,-2.428917646408081,-2.5546131134033203,9.336189270019531
1713723119933795118,-0.10546118021011353,-0.07137271761894226,0.09693906456232071,-2.785653591156006,-4.107253074645996,9.648633003234863
1713723119943795118,-0.017044231295585632,-0.09374327212572098,0.04580637067556381,0.8080430626869202,-1.338358759880066,11.765107154846191
1713723119952795118,-0.04048004746437073,0.004261057823896408,0.06178533658385277,2.8790276050567627,-0.07422025501728058,13.098677635192871
1713723119962795118,0.02130528911948204,0.06072007119655609,-0.022370552644133568,0.9026139974594116,-2.851494073867798,12.33372974395752
1713723119972795118,0.10759171098470688,0.030892668291926384,0.027696875855326653,-2.2409727573394775,-6.1519012451171875,9.672574996948242
1713723119981795118,0.19174760580062866,-0.004261057823896408,0.06711165606975555,-0.849941611289978,-3.181894063949585,9.199719429016113
1713723119991795118,0.2929477095603943,-0.002130528911948204,0.006391586735844612,1.6292542219161987,1.0642226934432983,8.662221908569336
1713723120000795118,0.20985709130764008,0.06178533658385277,0.01810949482023716,1.2689268589019775,2.6874914169311523,7.77756404876709
1713723120010795118,0.049002163112163544,0.08309062570333481,-0.003195793367922306,0.17956513166427612,4.392162799835205,9.611522674560547
1713723120019795118,-0.12463594228029251,0.06924218684434891,0.024501081556081772,-0.7649474143981934,4.322731018066406,10.101137161254883
1713723120029795118,-0.28016453981399536,0.037284255027770996,0.041545312851667404,-0.9636661410331726,2.535459518432617,10.031704902648926
1713723120038795118,-0.24714134633541107,-0.023435818031430244,0.009587380103766918,-2.1715409755706787,-1.1001356840133667,9.655815124511719
1713723120048795118,-0.14913702011108398,-0.10972223430871964,0.06604639440774918,-2.470816135406494,-4.732139587402344,8.493430137634277
1713723120058795118,-0.052197955548763275,-0.10120011866092682,0.08096009492874146,1.3850456476211548,-3.1435868740081787,10.352527618408203
1713723120068795118,0.01810949482023716,0.008522115647792816,0.02876213937997818,3.9169139862060547,-0.5674257874488831,12.38879680633545
1713723120077795118,-0.02130528911948204,0.12889699637889862,0.007456851191818714,2.693476915359497,-1.158793568611145,12.914323806762695
1713723120087795118,0.09374327212572098,0.10759171098470688,-0.027696875855326653,-2.342726230621338,-5.0876784324646,11.6430025100708
1713723120096795118,0.1299622654914856,0.015978965908288956,0.05752427875995636,-3.907337188720703,-6.01423454284668,9.026140213012695
1713723120106795118,0.27696874737739563,-0.0511326938867569,0.05326322093605995,-0.11971008032560349,-1.0977414846420288,8.283937454223633
1713723120115795118,0.2460760921239853,-0.030892668291926384,0.007456851191818714,1.282094955444336,2.846705675125122,8.937554359436035
1713723120125795118,0.17044231295585632,0.02130528911948204,-0.004261057823896408,0.8678981065750122,4.3191399574279785,8.914810180664062
1713723120135795118,-0.03195793181657791,0.03941478580236435,0.029827404767274857,0.05746084079146385,4.623203277587891,9.679757118225098
1713723120144795118,-0.18748654425144196,0.030892668291926384,0.006391586735844612,-0.15682020783424377,3.7002387046813965,10.21007251739502
1713723120154795118,-0.2972087860107422,0.03834952041506767,0.06285060197114944,0.19393032789230347,1.3862427473068237,9.245209693908691
1713723120163795118,-0.2269013226032257,0.008522115647792816,-0.02130528911948204,-1.5418658256530762,-2.3127987384796143,9.440337181091309
1713723120173795118,-0.10546118021011353,-0.06924218684434891,0.05432848632335663,-2.935291290283203,-5.7293243408203125,8.96269416809082
1713723120183795118,-0.015978965908288956,-0.08096009492874146,0.06817692518234253,0.5243301391601562,-3.3686418533325195,11.007342338562012
1713723120193795118,0.05752427875995636,-0.006391586735844612,0.022370552644133568,3.1914708614349365,-0.21428105235099792,12.561179161071777
1713723120202795118,0.007456851191818714,0.09480853378772736,0.008522115647792816,2.559401512145996,-0.47884032130241394,11.408370971679688
1713723120211795118,0.030892668291926384,0.11504855751991272,-0.024501081556081772,-0.6763619780540466,-2.45285964012146,11.192893028259277
1713723120221795118,0.0884169489145279,0.030892668291926384,0.017044231295585632,-3.245340347290039,-4.0294413566589355,9.17936897277832
1713723120230795118,0.15233281254768372,-0.04367584362626076,0.06178533658385277,-1.382651448249817,-1.316810965538025,8.463502883911133
1713723120241795118,0.19281286001205444,-0.049002163112163544,0.004261057823896408,0.667982280254364,1.765723705291748,9.05247688293457
1713723120250795118,0.1022653877735138,-0.004261057823896408,0.02556634694337845,1.0498573780059814,2.8323404788970947,8.99621295928955
1713723120259795118,-0.055393751710653305,0.029827404767274857,0.002130528911948204,0.894234299659729,3.3877954483032227,10.524910926818848
1713723120269795118,-0.17789916694164276,0.05006742849946022,0.012783173471689224,0.5207388401031494,2.3487117290496826,10.540472984313965
1713723120279795118,-0.22796659171581268,0.047936901450157166,0.022370552644133568,-0.3974374830722809,-0.12090718746185303,10.425551414489746
1713723120288795118,-0.092678003013134,-0.022370552644133568,-0.011717909015715122,-2.5977087020874023,-4.226963043212891,8.901641845703125
1713723120298795118,-0.055393751710653305,-0.05752427875995636,0.10120011866092682,-1.2988543510437012,-4.037821292877197,8.83819580078125
1713723120307795118,0.08096009492874146,-0.037284255027770996,0.008522115647792816,1.886630892753601,-0.6548141837120056,10.134655952453613
1713723120317795118,0.014913702383637428,0.05965480953454971,0.04687163606286049,2.1954829692840576,0.7206547260284424,11.037269592285156
1713723120326795118,-0.052197955548763275,0.1161138266324997,-0.008522115647792816,1.2904746532440186,1.059434175491333,12.94185733795166
1713723120336795118,0.002130528911948204,0.06072007119655609,-0.00532632227987051,-2.7461493015289307,-2.7054479122161865,11.153388023376465
1713723120346795118,0.024501081556081772,-0.055393751710653305,0.05432848632335663,-4.213794708251953,-5.386953830718994,8.868123054504395
1713723120356795118,0.1438107043504715,-0.10759171098470688,0.07030745595693588,0.016759412363171577,-2.1320366859436035,8.848969459533691
1713723120366795118,0.1906823366880417,-0.044741105288267136,0.022370552644133568,2.6204538345336914,1.2617442607879639,9.313444137573242
1713723120374795118,0.15233281254768372,0.047936901450157166,-0.011717909015715122,2.0661959648132324,2.274491548538208,8.993818283081055
1713723120384795118,0.009587380103766918,0.10120011866092682,0.026631610468029976,0.729034423828125,2.9735984802246094,10.090362548828125
1713723120394795118,-0.12463594228029251,0.10013485699892044,-0.00532632227987051,-0.2992752194404602,2.851494073867798,10.913968086242676
1713723120403795118,-0.20985709130764008,0.07030745595693588,0.034088462591171265,-1.304839849472046,0.8678981065750122,10.323797225952148
1713723120414795118,-0.12357067316770554,-0.05326322093605995,-0.017044231295585632,-3.4739866256713867,-3.5482068061828613,8.680177688598633
1713723120422795118,-0.09587380290031433,-0.12144014239311218,0.10972223430871964,-2.255337953567505,-4.277241230010986,8.84178638458252
1713723120432795118,0.0511326938867569,-0.10120011866092682,0.02556634694337845,1.768117904663086,-1.0965443849563599,9.922768592834473
1713723120442795118,0.015978965908288956,0.02130528911948204,0.049002163112163544,3.0166940689086914,0.6727706789970398,11.191695213317871
1713723120451795118,-0.02876213937997818,0.11717908829450607,-0.008522115647792816,2.319981336593628,1.01753568649292,12.492944717407227
1713723120461795118,-0.011717909015715122,0.10333064943552017,-0.004261057823896408,-1.5682021379470825,-2.279279947280884,11.82376480102539
1713723120471795118,0.04580637067556381,-0.023435818031430244,0.03302319720387459,-4.370615005493164,-5.7077765464782715,9.679757118225098
1713723120480795118,0.12676647305488586,-0.08096009492874146,0.10333064943552017,-1.0055646896362305,-2.8191723823547363,9.251194953918457
1713723120490795118,0.23542344570159912,-0.044741105288267136,0.01810949482023716,2.2697031497955322,0.8822633028030396,9.108739852905273
1713723120500795118,0.17363810539245605,0.047936901450157166,0.01810949482023716,2.0434510707855225,1.8722656965255737,8.057685852050781
1713723120509795118,0.041545312851667404,0.092678003013134,0.01065264455974102,0.568622887134552,3.245340347290039,9.81143856048584
1713723120519795118,-0.09480853378772736,0.08415588736534119,0.009587380103766918,-0.8164227604866028,3.272873640060425,10.278307914733887
1713723120528795118,-0.2269013226032257,0.04580637067556381,0.049002163112163544,-1.2880804538726807,1.8986018896102905,9.962272644042969
1713723120538795118,-0.18855179846286774,-0.04261057823896408,0.003195793367922306,-2.473210334777832,-1.6747440099716187,9.59596061706543
1713723120548795118,-0.11398329585790634,-0.1161138266324997,0.09587380290031433,-2.406172752380371,-4.58968448638916,8.860939979553223
1713723120557795118,-0.004261057823896408,-0.09587380290031433,0.07350324839353561,1.2653355598449707,-2.5103204250335693,10.044873237609863
1713723120567795118,0.06072007119655609,0.015978965908288956,0.044741105288267136,3.2824504375457764,-0.02992752008140087,11.599906921386719
1713723120576795118,0.017044231295585632,0.11717908829450607,0.009587380103766918,2.233790159225464,0.03232172131538391,11.784260749816895
1713723120586795118,0.008522115647792816,0.09480853378772736,-0.002130528911948204,-1.0761936902999878,-2.191891670227051,12.136208534240723
1713723120595795118,0.05645901337265968,-0.019174760207533836,0.029827404767274857,-3.445256233215332,-4.8901567459106445,10.45787239074707
1713723120605795118,0.10972223430871964,-0.06924218684434891,0.09587380290031433,-0.5626373887062073,-2.7054479122161865,9.706093788146973
1713723120614795118,0.22370553016662598,-0.02130528911948204,0.006391586735844612,2.164358377456665,0.18555063009262085,8.882488250732422
1713723120624795118,0.1896170675754547,0.07989483326673508,0.022370552644133568,1.8483237028121948,1.095347285270691,7.479485988616943
1713723120634795118,0.08735168725252151,0.12250541150569916,0.0,0.44412440061569214,2.9652187824249268,9.169792175292969
1713723120643795118,-0.03302319720387459,0.1022653877735138,0.001065264455974102,-1.3431471586227417,3.691859006881714,10.035296440124512
1713723120653795118,-0.17044231295585632,0.03302319720387459,0.030892668291926384,-2.3750481605529785,2.669534921646118,9.943119049072266
1713723120662795118,-0.20985709130764008,-0.058589544147253036,0.029827404767274857,-2.8598737716674805,0.17956513166427612,10.164583206176758
1713723120672795118,-0.14594122767448425,-0.14487595856189728,0.07243797928094864,-2.6563668251037598,-3.245340347290039,9.380481719970703
1713723120682795118,-0.08948221057653427,-0.13528858125209808,0.0884169489145279,0.669179379940033,-3.159149169921875,10.047266960144043
1713723120691795118,0.008522115647792816,-0.03834952041506767,0.03515372797846794,3.5936965942382812,-1.3467384576797485,11.282675743103027
1713723120701795118,0.00532632227987051,0.07137271761894226,0.01810949482023716,2.6599581241607666,-1.6759411096572876,12.497733116149902
1713723120710795118,0.09587380290031433,0.06817692518234253,-0.024501081556081772,-0.849941611289978,-4.1647138595581055,12.020089149475098
1713723120721795118,0.12357067316770554,0.026631610468029976,0.06817692518234253,-1.6915035247802734,-4.4975080490112305,9.894038200378418
1713723120730795118,0.23542344570159912,0.008522115647792816,0.03515372797846794,0.5949591398239136,-1.2677297592163086,8.740033149719238
1713723120739795118,0.22157500684261322,0.0511326938867569,0.020240023732185364,0.7948749661445618,1.3455413579940796,8.364143371582031
1713723120749795118,0.17044231295585632,0.06817692518234253,0.01065264455974102,-0.2585737705230713,3.0777461528778076,8.51258373260498
1713723120758795118,0.03834952041506767,0.04580637067556381,0.024501081556081772,-1.2066776752471924,3.9468414783477783,8.577227592468262
1713723120768795118,-0.12463594228029251,0.001065264455974102,0.019174760207533836,-1.5071499347686768,3.8570587635040283,9.781511306762695
1713723120778795118,-0.24288028478622437,-0.04367584362626076,0.037284255027770996,-1.091755986213684,2.3678653240203857,10.248380661010742
1713723120787795118,-0.24181503057479858,-0.0788295716047287,0.03941478580236435,-1.0630255937576294,-0.6811503767967224,10.321403503417969
1713723120797795118,-0.13315805792808533,-0.10972223430871964,0.044741105288267136,-1.5418658256530762,-4.423287391662598,9.558850288391113
1713723120807795118,-0.06178533658385277,-0.08096009492874146,0.08522115647792816,0.5937620401382446,-4.309563159942627,10.72482681274414
1713723120816795118,0.034088462591171265,-0.00532632227987051,0.029827404767274857,3.155557870864868,-1.9548656940460205,12.533645629882812
1713723120825795118,0.07030745595693588,0.05432848632335663,0.004261057823896408,1.6615759134292603,-2.7664999961853027,12.198457717895508
1713723120835795118,0.12357067316770554,0.05326322093605995,0.012783173471689224,-0.8978255987167358,-4.150348663330078,10.587160110473633
1713723120845795118,0.17789916694164276,0.04367584362626076,0.06072007119655609,-0.5243301391601562,-1.946485996246338,9.283516883850098
1713723120855795118,0.2460760921239853,0.047936901450157166,0.002130528911948204,0.2861070930957794,0.8750807046890259,8.26478385925293
1713723120864795118,0.185356006026268,0.058589544147253036,0.024501081556081772,-0.5997475385665894,2.3032219409942627,7.649474143981934
1713723120874795118,0.052197955548763275,0.023435818031430244,0.023435818031430244,-1.382651448249817,3.91092848777771,9.295488357543945
1713723120883795118,-0.1022653877735138,-0.029827404767274857,0.04367584362626076,-1.436521053314209,4.031835556030273,10.414776802062988
1713723120893795118,-0.23116238415241241,-0.0649811327457428,0.05752427875995636,-0.6272808313369751,2.1799206733703613,10.08437728881836
1713723120902795118,-0.2514024078845978,-0.06924218684434891,0.047936901450157166,-0.12330138683319092,-0.8044517636299133,10.32978343963623
1713723120912795118,-0.10546118021011353,-0.08522115647792816,0.04048004746437073,-1.1659761667251587,-4.845864295959473,9.57201862335205
1713723120922795118,-0.030892668291926384,-0.05006742849946022,0.08735168725252151,0.24181437492370605,-4.697423458099365,9.81383228302002
1713723120931795118,0.08522115647792816,0.011717909015715122,0.02130528911948204,2.5773580074310303,-1.337161660194397,11.637017250061035
1713723120941795118,0.03834952041506767,0.08202536404132843,0.03302319720387459,1.6962919235229492,-0.4082113802433014,12.559982299804688
1713723120950795118,0.08628641813993454,0.047936901450157166,-0.020240023732185364,-1.5298948287963867,-2.4660277366638184,11.439495086669922
1713723120960795118,0.0884169489145279,-0.011717909015715122,0.07989483326673508,-2.3918075561523438,-3.3231518268585205,8.951919555664062
1713723120970795118,0.19174760580062866,-0.05006742849946022,0.04261057823896408,0.05506663769483566,-0.7445967197418213,7.838616371154785
1713723120979795118,0.17257283627986908,-0.013848437927663326,0.0511326938867569,1.0749965906143188,1.7549498081207275,8.475473403930664
1713723120989795118,0.10759171098470688,0.029827404767274857,0.022370552644133568,0.9205705523490906,3.3446996212005615,9.569623947143555
1713723120998795118,-0.03941478580236435,0.05965480953454971,0.04687163606286049,0.27413609623908997,3.599682092666626,9.931148529052734
1713723121008795118,-0.18642127513885498,0.05432848632335663,0.029827404767274857,-0.47884032130241394,2.6431987285614014,10.42195987701416
1713723121017795118,-0.2087918221950531,0.002130528911948204,0.044741105288267136,-2.1368250846862793,-0.3172317147254944,10.396821022033691
1713723121028795118,-0.10972223430871964,-0.1022653877735138,0.05326322093605995,-3.3231518268585205,-4.327519416809082,8.765172004699707
1713723121037795118,-0.041545312851667404,-0.1203748807311058,0.11291802674531937,-0.09457096457481384,-3.4991257190704346,9.431957244873047
1713723121046795118,0.05752427875995636,-0.052197955548763275,0.03195793181657791,3.0585925579071045,-0.6033388376235962,11.264719009399414
1713723121056795118,-0.002130528911948204,0.05752427875995636,0.037284255027770996,2.8598737716674805,-0.17238251864910126,12.139799118041992
1713723121066795118,-0.011717909015715122,0.08309062570333481,0.0,0.0011971008498221636,-1.7178397178649902,13.341689109802246
1713723121076795118,0.09054747968912125,0.004261057823896408,0.014913702383637428,-3.1471781730651855,-5.505466938018799,10.24239444732666
1713723121085795118,0.148071750998497,-0.03834952041506767,0.11824434995651245,-0.811634361743927,-3.7912182807922363,8.8070707321167
1713723121094795118,0.3163835406303406,-0.02130528911948204,0.003195793367922306,1.8986018896102905,0.3280056416988373,7.59560489654541
1713723121104795118,0.2183792144060135,0.055393751710653305,0.05326322093605995,1.1755529642105103,2.513911724090576,7.747636795043945
1713723121114795118,0.07243797928094864,0.07776430249214172,-0.003195793367922306,-0.040701426565647125,4.920084476470947,10.680533409118652
1713723121123795118,-0.11930961906909943,0.05432848632335663,0.049002163112163544,-1.0833762884140015,4.654327869415283,10.472237586975098
1713723121133795118,-0.29401299357414246,0.004261057823896408,0.04580637067556381,-1.138442873954773,2.558204412460327,10.103530883789062
1713723121143795118,-0.23116238415241241,-0.07030745595693588,0.029827404767274857,-2.0817582607269287,-1.9333178997039795,8.865728378295898
1713723121152795118,-0.13315805792808533,-0.13635385036468506,0.08522115647792816,-1.968033790588379,-5.3797712326049805,8.255207061767578
1713723121161795118,0.012783173471689224,-0.09906959533691406,0.07350324839353561,1.9560627937316895,-3.0142998695373535,10.121487617492676
1713723121171795118,0.06924218684434891,0.022370552644133568,0.029827404767274857,3.9456443786621094,-0.05386953800916672,12.235568046569824
1713723121180795118,0.02130528911948204,0.1342233121395111,-0.00532632227987051,2.6120738983154297,0.0071826050989329815,12.586318016052246
1713723121191795118,0.034088462591171265,0.11185276508331299,-0.007456851191818714,-1.623268723487854,-3.0609867572784424,12.33492660522461
1713723121200795118,0.10333064943552017,0.002130528911948204,0.029827404767274857,-4.191050052642822,-5.719747543334961,9.093177795410156
1713723121209795118,0.19813919067382812,-0.055393751710653305,0.09161274135112762,-1.116895079612732,-2.1787235736846924,8.061277389526367
1713723121219795118,0.287621408700943,-0.04687163606286049,-0.00532632227987051,1.2928688526153564,1.9405004978179932,8.822632789611816
1713723121229795118,0.19707392156124115,0.007456851191818714,0.01065264455974102,0.9493009448051453,3.3195605278015137,8.180987358093262
1713723121239795118,0.002130528911948204,0.015978965908288956,0.004261057823896408,0.02753331884741783,4.55496883392334,10.578780174255371
1713723121248795118,-0.16405072808265686,0.003195793367922306,0.011717909015715122,-0.24660277366638184,3.689464807510376,10.775104522705078
1713723121257795118,-0.30466562509536743,0.006391586735844612,0.05326322093605995,0.3363853394985199,1.3084311485290527,9.714472770690918
1713723121267795118,-0.2087918221950531,-0.011717909015715122,-0.02130528911948204,-0.7984662652015686,-2.5342624187469482,8.868123054504395
1713723121277795118,-0.07776430249214172,-0.05432848632335663,0.05645901337265968,-1.8746598958969116,-5.661089897155762,8.259995460510254
1713723121286795118,0.03515372797846794,-0.05006742849946022,0.03621898964047432,0.773327112197876,-2.7880477905273438,11.002553939819336
1713723121296795118,0.07989483326673508,0.02130528911948204,0.014913702383637428,2.4636335372924805,0.50876784324646,13.366827964782715
1713723121306795118,0.0,0.07350324839353561,-0.017044231295585632,1.4389152526855469,-0.3172317147254944,13.205219268798828
1713723121315795118,0.0649811327457428,0.02130528911948204,-0.027696875855326653,-2.425326347351074,-4.592078685760498,10.702081680297852
1713723121325795118,0.1065264418721199,-0.04687163606286049,0.0511326938867569,-3.2620997428894043,-5.822698593139648,8.324639320373535
1713723121334795118,0.2908172011375427,-0.07137271761894226,0.034088462591171265,0.4082113802433014,-1.2880804538726807,7.736862659454346
1713723121344795118,0.2865561246871948,-0.020240023732185364,-0.004261057823896408,1.4125789403915405,2.6815059185028076,8.378508567810059
1713723121353795118,0.1810949593782425,0.024501081556081772,-0.006391586735844612,0.7457938194274902,4.8494553565979,9.800664901733398
1713723121363795118,-0.03621898964047432,0.03621898964047432,0.02556634694337845,0.06344634294509888,5.317522048950195,10.881646156311035
1713723121373795118,-0.22050973773002625,0.019174760207533836,0.004261057823896408,-0.09576806426048279,3.640383720397949,10.304643630981445
1713723121382795118,-0.31318774819374084,0.019174760207533836,0.05326322093605995,0.2561795711517334,0.7350199222564697,8.65743350982666
1713723121392795118,-0.16831177473068237,-0.037284255027770996,-0.037284255027770996,-1.6340426206588745,-4.017470359802246,7.881711959838867
1713723121401795118,-0.092678003013134,-0.07776430249214172,0.07456851005554199,-1.8411411046981812,-5.410895824432373,9.009381294250488
1713723121411795118,0.04367584362626076,-0.06285060197114944,0.003195793367922306,1.2988543510437012,-1.6041151285171509,11.907562255859375
1713723121421795118,0.007456851191818714,0.023435818031430244,0.017044231295585632,2.473210334777832,0.47884032130241394,13.934253692626953
1713723121430795118,-0.001065264455974102,0.05645901337265968,-0.03621898964047432,0.6667851805686951,-1.3742717504501343,14.15212631225586
1713723121440795118,0.10546118021011353,0.01065264455974102,-0.011717909015715122,-2.828749179840088,-5.989095687866211,10.044873237609863
1713723121449795118,0.16511598229408264,-0.027696875855326653,0.06604639440774918,-1.6041151285171509,-4.7357306480407715,7.926004409790039
1713723121460795118,0.3472762107849121,-0.037284255027770996,-0.011717909015715122,1.3874398469924927,-0.008379706181585789,7.358578681945801
1713723121468795118,0.25353294610977173,0.01810949482023716,0.009587380103766918,0.9983820915222168,2.892195701599121,8.125920295715332
1713723121478795118,0.09693906456232071,0.03621898964047432,-0.030892668291926384,0.05267243832349777,5.400121688842773,10.763134002685547
1713723121488795118,-0.11185276508331299,0.019174760207533836,0.02876213937997818,-0.6189011335372925,5.076904773712158,10.316615104675293
1713723121498795118,-0.2822950780391693,-0.01065264455974102,0.009587380103766918,-0.3016694188117981,2.9269115924835205,9.349357604980469
1713723121507795118,-0.296143501996994,-0.01065264455974102,0.03515372797846794,-0.0933738648891449,-0.06224924325942993,9.062053680419922
1713723121517795118,-0.13209278881549835,-0.052197955548763275,-0.015978965908288956,-1.7729063034057617,-4.311957359313965,8.239645004272461
1713723121526795118,-0.07669904083013535,-0.0649811327457428,0.07030745595693588,-0.7230489253997803,-4.165910720825195,9.734824180603027
1713723121536795118,0.03195793181657791,-0.02876213937997818,-0.001065264455974102,2.0183119773864746,-0.8846575021743774,12.655750274658203
1713723121546795118,-0.02130528911948204,0.03621898964047432,0.013848437927663326,1.7190368175506592,-0.7876923680305481,14.499285697937012
1713723121555795118,0.06817692518234253,0.0,-0.03195793181657791,-1.4329296350479126,-4.659116268157959,12.915520668029785
1713723121565795118,0.12144014239311218,-0.024501081556081772,0.07243797928094864,-1.6543933153152466,-6.214150428771973,8.51138687133789
1713723121574795118,0.30892667174339294,-0.008522115647792816,0.015978965908288956,1.5526397228240967,-2.2637176513671875,6.85100793838501
1713723121584795118,0.32170987129211426,0.06604639440774918,0.003195793367922306,1.7070658206939697,1.9237409830093384,7.95832633972168
1713723121594795118,0.23755396902561188,0.1022653877735138,-0.019174760207533836,0.05626373738050461,4.878185749053955,9.404423713684082
1713723121603795118,0.01065264455974102,0.07776430249214172,0.013848437927663326,-1.5275006294250488,6.021417140960693,10.321403503417969
1713723121613795118,-0.21518342196941376,0.006391586735844612,0.014913702383637428,-2.0027496814727783,4.827907562255859,10.60391902923584
1713723121622795118,-0.3440804183483124,-0.05752427875995636,0.05432848632335663,-1.2964601516723633,1.4927847385406494,9.884461402893066
1713723121632795118,-0.20026971399784088,-0.1395496428012848,0.01065264455974102,-2.404975652694702,-4.270058631896973,7.886500358581543
1713723121641795118,-0.1203748807311058,-0.1576591432094574,0.11078750342130661,-0.7876923680305481,-5.890933036804199,8.38808536529541
1713723121651795118,0.06178533658385277,-0.0884169489145279,0.019174760207533836,3.3494880199432373,-1.9596540927886963,11.069591522216797
1713723121660795118,0.037284255027770996,0.05965480953454971,0.029827404767274857,3.8151602745056152,0.3663128614425659,13.184868812561035
1713723121670795118,0.00532632227987051,0.12889699637889862,-0.03195793181657791,1.6496049165725708,-0.3770867586135864,14.562731742858887
1713723121679795118,0.10120011866092682,0.05645901337265968,-0.012783173471689224,-3.0753519535064697,-5.3977274894714355,11.202469825744629
1713723121689795118,0.13528858125209808,-0.024501081556081772,0.07243797928094864,-3.021482467651367,-5.857414245605469,8.01339340209961
1713723121699795118,0.3291667103767395,-0.05645901337265968,0.023435818031430244,0.5111620426177979,-0.9289502501487732,6.867767333984375
1713723121708795118,0.28016453981399536,-0.009587380103766918,0.020240023732185364,0.9720458984375,2.956839084625244,8.250418663024902
1713723121718795118,0.17044231295585632,0.019174760207533836,-0.020240023732185364,0.27653029561042786,5.535394191741943,9.910798072814941
1713723121728795118,-0.0649811327457428,0.015978965908288956,0.04687163606286049,-0.5015852451324463,5.870582580566406,10.521319389343262
1713723121737795118,-0.24820661544799805,-0.011717909015715122,0.004261057823896408,-0.2669534981250763,4.0114850997924805,10.074800491333008
1713723121747795118,-0.34940674901008606,0.002130528911948204,0.08522115647792816,0.6117185354232788,1.0330979824066162,8.859743118286133
1713723121756795118,-0.1992044448852539,-0.009587380103766918,-0.01810949482023716,-0.894234299659729,-3.5936965942382812,8.44434928894043
1713723121767795118,-0.08735168725252151,-0.04580637067556381,0.07989483326673508,-1.8255788087844849,-6.008249282836914,8.428787231445312
1713723121776795118,0.03302319720387459,-0.044741105288267136,0.04367584362626076,0.7852981686592102,-2.3523030281066895,11.689689636230469
1713723121785795118,0.030892668291926384,0.020240023732185364,0.02556634694337845,2.211045265197754,0.4321534037590027,14.364012718200684
1713723121795795118,-0.011717909015715122,0.03941478580236435,-0.002130528911948204,0.9433154463768005,-1.092953085899353,14.135366439819336
1713723121805795118,0.08522115647792816,-0.002130528911948204,-0.00532632227987051,-2.187103271484375,-5.579687118530273,10.232817649841309
1713723121814795118,0.1342233121395111,-0.030892668291926384,0.07137271761894226,-1.3096283674240112,-5.0912699699401855,7.73207426071167
1713723121823795118,0.33236250281333923,-0.02130528911948204,0.002130528911948204,1.6364368200302124,-0.50876784324646,7.2089409828186035
1713723121833795118,0.2641855776309967,0.049002163112163544,0.011717909015715122,1.2294225692749023,2.831143379211426,8.043320655822754
1713723121843795118,0.11398329585790634,0.07350324839353561,-0.009587380103766918,0.09935937076807022,5.680243492126465,10.911574363708496
1713723121853795118,-0.10120011866092682,0.05432848632335663,0.03302319720387459,-0.9361328482627869,5.553350925445557,10.830171585083008
1713723121862795118,-0.2865561246871948,0.007456851191818714,0.034088462591171265,-0.9971849918365479,3.1974563598632812,9.578003883361816
1713723121872795118,-0.296143501996994,-0.030892668291926384,0.05326322093605995,-1.315613865852356,-0.5003881454467773,9.242815971374512
1713723121881795118,-0.14274543523788452,-0.09693906456232071,0.02876213937997818,-2.536656618118286,-4.934449672698975,8.176198959350586
1713723121891795118,-0.06178533658385277,-0.09480853378772736,0.10439591109752655,0.15083470940589905,-4.095282077789307,9.406818389892578
1713723121901795118,0.05432848632335663,-0.022370552644133568,0.017044231295585632,3.2333693504333496,-0.712274968624115,12.09430980682373
1713723121910795118,-0.013848437927663326,0.08202536404132843,0.029827404767274857,2.6348190307617188,-0.24181437492370605,13.08910083770752
1713723121920795118,0.037284255027770996,0.05645901337265968,-0.02130528911948204,-0.954089343547821,-3.2585084438323975,12.901155471801758
1713723121929795118,0.09693906456232071,-0.019174760207533836,0.047936901450157166,-3.112462043762207,-6.075286865234375,9.283516883850098
1713723121939795118,0.2322276532649994,-0.05006742849946022,0.07137271761894226,-0.004788403399288654,-2.5079262256622314,7.939172744750977
1713723121949795118,0.324905663728714,-0.008522115647792816,-0.013848437927663326,1.8136078119277954,1.7298107147216797,8.184577941894531
1713723121958795118,0.24394555389881134,0.03621898964047432,0.007456851191818714,0.8667010068893433,3.6978445053100586,8.377311706542969
1713723121968795118,0.03834952041506767,0.04048004746437073,0.004261057823896408,-0.10175357013940811,5.337872505187988,10.529699325561523
1713723121977795118,-0.16831177473068237,0.019174760207533836,0.019174760207533836,-0.3734954595565796,4.6914381980896,10.779892921447754
1713723121987795118,-0.32703617215156555,0.004261057823896408,0.04580637067556381,0.22026655077934265,1.9357120990753174,9.299078941345215
1713723121997795118,-0.3057308793067932,0.019174760207533836,0.02130528911948204,0.0071826050989329815,-1.4137760400772095,9.707290649414062
1713723122006795118,-0.10546118021011353,-0.029827404767274857,-0.004261057823896408,-2.4217350482940674,-5.872976779937744,8.845377922058105
1713723122016795118,-0.03941478580236435,-0.0511326938867569,0.07776430249214172,-0.8427590131759644,-4.596867084503174,9.980229377746582
1713723122025795118,0.10013485699892044,-0.02130528911948204,-0.012783173471689224,2.2697031497955322,-0.3687070608139038,12.338518142700195
1713723122035795118,-0.002130528911948204,0.05326322093605995,0.013848437927663326,2.033874273300171,0.25258827209472656,12.690465927124023
1713723122044795118,-0.007456851191818714,0.049002163112163544,-0.03834952041506767,-0.31124621629714966,-1.4832079410552979,12.776657104492188
1713723122054795118,0.08628641813993454,-0.003195793367922306,0.011717909015715122,-2.6408045291900635,-4.821922302246094,8.960299491882324
1713723122064795118,0.17470337450504303,-0.030892668291926384,0.04687163606286049,-0.44173020124435425,-2.9759926795959473,7.515398979187012
1713723122074795118,0.29401299357414246,-0.01810949482023716,-0.017044231295585632,1.7094600200653076,0.9923965930938721,7.965508937835693
1713723122083795118,0.19600865244865417,0.03621898964047432,0.006391586735844612,1.0426747798919678,3.1531636714935303,8.93276596069336
1713723122092795118,0.015978965908288956,0.06072007119655609,-0.011717909015715122,-0.005985504016280174,4.921281337738037,11.441889762878418
1713723122102795118,-0.16618125140666962,0.041545312851667404,0.011717909015715122,-0.6500257253646851,4.035427093505859,10.60511589050293
1713723122112795118,-0.3004045784473419,0.015978965908288956,0.03515372797846794,-0.4692635238170624,1.5179238319396973,9.051279067993164
1713723122122795118,-0.1896170675754547,-0.04261057823896408,-0.01810949482023716,-1.7848773002624512,-3.0621838569641113,8.074444770812988
1713723122131795118,-0.10120011866092682,-0.09054747968912125,0.0649811327457428,-1.8602946996688843,-5.079298973083496,8.391676902770996
1713723122140795118,0.05326322093605995,-0.07669904083013535,0.02130528911948204,1.3682862520217896,-1.7717092037200928,10.430339813232422
1713723122150795118,0.04367584362626076,0.02876213937997818,0.014913702383637428,2.7449522018432617,0.9911994934082031,12.950236320495605
1713723122160795118,-0.017044231295585632,0.10333064943552017,-0.030892668291926384,1.845929503440857,0.8152256608009338,13.211204528808594
1713723122169530017,-0.014913702383637428,0.05645901337265968,-0.013848437927663326,-1.6136919260025024,-3.0597896575927734,11.500547409057617
1713723122179530017,0.05645901337265968,-0.04261057823896408,0.015978965908288956,-3.573345899581909,-6.034585475921631,8.556877136230469
1713723122188530017,0.17896442115306854,-0.07243797928094864,0.0649811327457428,-0.35913026332855225,-2.626439332962036,8.146270751953125
1713723122198530017,0.27590349316596985,-0.04048004746437073,-0.024501081556081772,1.908178687095642,1.5885528326034546,9.14704704284668
1713723122208530017,0.19707392156124115,0.022370552644133568,-0.008522115647792816,1.3527239561080933,3.1208419799804688,9.02135181427002
1713723122217530017,0.012783173471689224,0.05752427875995636,-0.003195793367922306,0.365115761756897,4.279635429382324,11.076773643493652
1713723122227530017,-0.1533980816602707,0.049002163112163544,-0.01065264455974102,-0.181959331035614,3.47039532661438,10.626664161682129
1713723122236530017,-0.2780340313911438,0.04261057823896408,0.04048004746437073,-0.10175357013940811,1.2713210582733154,9.127893447875977
1713723122246530017,-0.18855179846286774,0.003195793367922306,-0.049002163112163544,-1.9632453918457031,-2.4420857429504395,8.62630844116211
1713723122255530017,-0.092678003013134,-0.07563377171754837,0.0511326938867569,-2.852691173553467,-4.921281337738037,8.489839553833008
1713723122265530017,0.013848437927663326,-0.09800432622432709,0.03621898964047432,0.49320554733276367,-2.027888774871826,10.963048934936523
1713723122275530017,0.03941478580236435,-0.012783173471689224,0.022370552644133568,2.7234044075012207,0.7541735172271729,13.175292015075684
1713723122284530017,-0.019174760207533836,0.07669904083013535,0.002130528911948204,2.361879825592041,0.1280897855758667,12.18528938293457
1713723122294530017,0.012783173471689224,0.08202536404132843,0.001065264455974102,-0.5614402890205383,-3.110067844390869,10.575188636779785
1713723122304530017,0.09054747968912125,0.024501081556081772,0.026631610468029976,-2.846705675125122,-5.127182960510254,8.265981674194336
1713723122313530017,0.1949433982372284,-0.011717909015715122,0.08202536404132843,-1.2186486721038818,-1.5957354307174683,8.3521728515625
1713723122323530017,0.23861923813819885,-0.009587380103766918,0.020240023732185364,0.24061726033687592,2.388216257095337,9.747992515563965
1713723122332530017,0.13102751970291138,0.02876213937997818,0.05752427875995636,0.14365209639072418,3.8271312713623047,9.601945877075195
1713723122342530017,-0.06072007119655609,0.047936901450157166,0.055393751710653305,-0.27413609623908997,4.271255970001221,10.614692687988281
1713723122352530017,-0.20026971399784088,0.034088462591171265,0.0511326938867569,-0.7481880187988281,2.9077579975128174,10.02691650390625
1713723122361530017,-0.24714134633541107,0.0,0.08628641813993454,-1.7369933128356934,0.008379706181585789,9.68933391571045
1713723122371530017,-0.12783172726631165,-0.08415588736534119,0.05006742849946022,-3.2118215560913086,-3.8067805767059326,8.848969459533691
1713723122380530017,-0.08735168725252151,-0.11398329585790634,0.15659387409687042,-0.8667010068893433,-3.508702516555786,9.264363288879395
