t,gx,gy,gz,ax,ay,az
1713722594475198078,-0.001065264455974102,-0.002130528911948204,-0.01810949482023716,-0.08259996026754379,-0.8140285611152649,9.889249801635742
1713722594485198078,-0.002130528911948204,-0.001065264455974102,-0.019174760207533836,-0.0694318488240242,-0.7984662652015686,9.896432876586914
1713722594494198078,-0.002130528911948204,-0.001065264455974102,-0.019174760207533836,-0.08499415963888168,-0.8104372620582581,9.892841339111328
1713722594504198078,-0.002130528911948204,-0.001065264455974102,-0.01810949482023716,-0.09457096457481384,-0.8271966576576233,9.890446662902832
1713722594513198078,-0.002130528911948204,-0.002130528911948204,-0.01810949482023716,-0.08140285313129425,-0.812831461429596,9.888052940368652
1713722594524198078,-0.002130528911948204,-0.001065264455974102,-0.019174760207533836,-0.07182604819536209,-0.8008604645729065,9.886856079101562
1713722594532198078,-0.001065264455974102,-0.001065264455974102,-0.019174760207533836,-0.08499415963888168,-0.8188169598579407,9.888052940368652
1713722594542198078,-0.002130528911948204,-0.002130528911948204,-0.019174760207533836,-0.10055647045373917,-0.8271966576576233,9.884461402893066
1713722594552198078,-0.002130528911948204,-0.001065264455974102,-0.019174760207533836,-0.08379705995321274,-0.8056488633155823,9.884461402893066
1713722594561198078,-0.002130528911948204,-0.001065264455974102,-0.019174760207533836,-0.0694318488240242,-0.8020575642585754,9.889249801635742
1713722594571198078,-0.001065264455974102,-0.001065264455974102,-0.019174760207533836,-0.08379705995321274,-0.8200140595436096,9.888052940368652
1713722594580198078,-0.002130528911948204,-0.002130528911948204,-0.019174760207533836,-0.08858545869588852,-0.8236053586006165,9.883264541625977
1713722594591198078,-0.002130528911948204,-0.001065264455974102,-0.019174760207533836,-0.07781155407428741,-0.8092401623725891,9.892841339111328
1713722594599198078,-0.002130528911948204,-0.001065264455974102,-0.019174760207533836,-0.07541735470294952,-0.8044517636299133,9.894038200378418
1713722594609198078,-0.001065264455974102,-0.001065264455974102,-0.019174760207533836,-0.09816227108240128,-0.8140285611152649,9.884461402893066
1713722594619198078,-0.001065264455974102,-0.002130528911948204,-0.01810949482023716,-0.10534487664699554,-0.8152256608009338,9.888052940368652
1713722594628198078,-0.002130528911948204,-0.002130528911948204,-0.01810949482023716,-0.08619125932455063,-0.8008604645729065,9.895235061645508
1713722594638198078,-0.002130528911948204,-0.002130528911948204,-0.019174760207533836,-0.08619125932455063,-0.8068459630012512,9.896432876586914
1713722594648198078,-0.002130528911948204,-0.001065264455974102,-0.019174760207533836,-0.10175357013940811,-0.8224082589149475,9.886856079101562
1713722594657198078,-0.002130528911948204,-0.001065264455974102,-0.01810949482023716,-0.09696516394615173,-0.8152256608009338,9.889249801635742
1713722594667198078,-0.001065264455974102,-0.001065264455974102,-0.01810949482023716,-0.08499415963888168,-0.8056488633155823,9.90122127532959
1713722594676198078,-0.002130528911948204,0.0,-0.019174760207533836,-0.090979665517807,-0.8092401623725891,9.891644477844238
1713722594686198078,-0.002130528911948204,-0.001065264455974102,-0.019174760207533836,-0.09696516394615173,-0.8200140595436096,9.884461402893066
1713722594695198078,-0.001065264455974102,-0.002130528911948204,-0.01810949482023716,-0.08379705995321274,-0.8104372620582581,9.886856079101562
1713722594705198078,-0.001065264455974102,-0.001065264455974102,-0.019174760207533836,-0.07182604819536209,-0.8020575642585754,9.892841339111328
1713722594714198078,-0.002130528911948204,-0.001065264455974102,-0.01810949482023716,-0.07900865375995636,-0.811634361743927,9.889249801635742
1713722594724198078,-0.002130528911948204,-0.001065264455974102,-0.019174760207533836,-0.0933738648891449,-0.8248024582862854,9.888052940368652
1713722594734198078,-0.002130528911948204,-0.001065264455974102,-0.01810949482023716,-0.08379705995321274,-0.8188169598579407,9.894038200378418
1713722594744198078,-0.002130528911948204,-0.001065264455974102,-0.019174760207533836,-0.07661445438861847,-0.8056488633155823,9.888052940368652
1713722594753198078,-0.003195793367922306,-0.001065264455974102,-0.019174760207533836,-0.09217676520347595,-0.811634361743927,9.886856079101562
1713722594762198078,-0.003195793367922306,-0.001065264455974102,-0.01810949482023716,-0.08499415963888168,-0.8176198601722717,9.892841339111328
1713722594772198078,-0.002130528911948204,-0.002130528911948204,-0.01810949482023716,-0.06823474913835526,-0.8104372620582581,9.900023460388184
1713722594781198078,-0.002130528911948204,-0.001065264455974102,-0.019174760207533836,-0.07182604819536209,-0.8032546639442444,9.898826599121094
1713722594791198078,-0.002130528911948204,-0.002130528911948204,-0.01810949482023716,-0.08619125932455063,-0.8200140595436096,9.890446662902832
1713722594801198078,-0.002130528911948204,-0.001065264455974102,-0.01810949482023716,-0.0933738648891449,-0.8259995579719543,9.884461402893066
1713722594810198078,-0.001065264455974102,-0.001065264455974102,-0.019174760207533836,-0.08140285313129425,-0.8068459630012512,9.891644477844238
1713722594820198078,-0.002130528911948204,-0.001065264455974102,-0.01810949482023716,-0.08619125932455063,-0.8008604645729065,9.896432876586914
1713722594830198078,-0.002130528911948204,-0.002130528911948204,-0.019174760207533836,-0.10295066982507706,-0.812831461429596,9.884461402893066
1713722594840198078,-0.002130528911948204,-0.001065264455974102,-0.01810949482023716,-0.09217676520347595,-0.8176198601722717,9.88086986541748
1713722594849198078,-0.002130528911948204,-0.001065264455974102,-0.01810949482023716,-0.07541735470294952,-0.8032546639442444,9.888052940368652
1713722594858198078,-0.002130528911948204,-0.001065264455974102,-0.019174760207533836,-0.08259996026754379,-0.8008604645729065,9.892841339111328
1713722594868198078,-0.003195793367922306,-0.001065264455974102,-0.01810949482023716,-0.09576806426048279,-0.8140285611152649,9.891644477844238
1713722594877198078,-0.002130528911948204,-0.002130528911948204,-0.01810949482023716,-0.08738835901021957,-0.8092401623725891,9.885658264160156
1713722594887198078,-0.001065264455974102,-0.002130528911948204,-0.019174760207533836,-0.07900865375995636,-0.7984662652015686,9.889249801635742
1713722594897198078,-0.002130528911948204,-0.001065264455974102,-0.019174760207533836,-0.090979665517807,-0.811634361743927,9.892841339111328
1713722594906198078,-0.001065264455974102,-0.002130528911948204,-0.019174760207533836,-0.10055647045373917,-0.8200140595436096,9.88086986541748
1713722594916198078,-0.003195793367922306,-0.002130528911948204,-0.01810949482023716,-0.090979665517807,-0.8092401623725891,9.885658264160156
1713722594925198078,-0.002130528911948204,-0.001065264455974102,-0.019174760207533836,-0.07900865375995636,-0.7996633648872375,9.894038200378418
1713722594935198078,-0.002130528911948204,-0.001065264455974102,-0.019174760207533836,-0.08140285313129425,-0.8104372620582581,9.882067680358887
1713722594945198078,-0.002130528911948204,-0.001065264455974102,-0.01810949482023716,-0.09217676520347595,-0.8236053586006165,9.88086986541748
1713722594954198078,-0.002130528911948204,-0.002130528911948204,-0.019174760207533836,-0.08738835901021957,-0.812831461429596,9.890446662902832
1713722594964198078,-0.002130528911948204,-0.001065264455974102,-0.019174760207533836,-0.07422025501728058,-0.8044517636299133,9.894038200378418
1713722594973198078,-0.002130528911948204,-0.002130528911948204,-0.019174760207533836,-0.090979665517807,-0.8188169598579407,9.889249801635742
1713722594983198078,-0.001065264455974102,-0.002130528911948204,-0.019174760207533836,-0.09696516394615173,-0.8295908570289612,9.87967300415039
1713722594992198078,-0.002130528911948204,-0.002130528911948204,-0.01810949482023716,-0.07062894850969315,-0.812831461429596,9.884461402893066
1713722595002198078,-0.002130528911948204,-0.001065264455974102,-0.019174760207533836,-0.06464344263076782,-0.7996633648872375,9.898826599121094
1713722595012198078,-0.002130528911948204,-0.001065264455974102,-0.019174760207533836,-0.08858545869588852,-0.8212111592292786,9.895235061645508
1713722595021198078,-0.002130528911948204,-0.002130528911948204,-0.019174760207533836,-0.09457096457481384,-0.8283937573432922,9.886856079101562
1713722595031198078,-0.002130528911948204,-0.002130528911948204,-0.01810949482023716,-0.07422025501728058,-0.8068459630012512,9.896432876586914
1713722595040198078,-0.001065264455974102,-0.001065264455974102,-0.019174760207533836,-0.07661445438861847,-0.8044517636299133,9.90122127532959
1713722595050198078,-0.001065264455974102,-0.001065264455974102,-0.019174760207533836,-0.09457096457481384,-0.8248024582862854,9.891644477844238
1713722595060198078,-0.002130528911948204,-0.001065264455974102,-0.019174760207533836,-0.090979665517807,-0.8224082589149475,9.888052940368652
1713722595069198078,-0.002130528911948204,-0.002130528911948204,-0.019174760207533836,-0.07062894850969315,-0.8020575642585754,9.891644477844238
1713722595079198078,-0.002130528911948204,-0.001065264455974102,-0.019174760207533836,-0.07781155407428741,-0.8068459630012512,9.891644477844238
1713722595088198078,-0.002130528911948204,-0.002130528911948204,-0.019174760207533836,-0.09696516394615173,-0.8212111592292786,9.883264541625977
1713722595098198078,-0.001065264455974102,-0.002130528911948204,-0.019174760207533836,-0.090979665517807,-0.8152256608009338,9.883264541625977
1713722595107198078,-0.001065264455974102,-0.002130528911948204,-0.019174760207533836,-0.07900865375995636,-0.7996633648872375,9.891644477844238
1713722595117198078,-0.002130528911948204,-0.001065264455974102,-0.019174760207533836,-0.08738835901021957,-0.8080430626869202,9.890446662902832
1713722595127198078,-0.002130528911948204,-0.001065264455974102,-0.01810949482023716,-0.10055647045373917,-0.8248024582862854,9.884461402893066
1713722595137198078,-0.002130528911948204,-0.002130528911948204,-0.019174760207533836,-0.08379705995321274,-0.8104372620582581,9.889249801635742
1713722595146198078,-0.002130528911948204,-0.001065264455974102,-0.019174760207533836,-0.07182604819536209,-0.7996633648872375,9.892841339111328
1713722595155198078,-0.002130528911948204,-0.001065264455974102,-0.019174760207533836,-0.07900865375995636,-0.8188169598579407,9.890446662902832
1713722595165198078,-0.002130528911948204,-0.002130528911948204,-0.019174760207533836,-0.090979665517807,-0.8283937573432922,9.890446662902832
1713722595174198078,-0.001065264455974102,-0.002130528911948204,-0.019174760207533836,-0.08140285313129425,-0.8104372620582581,9.886856079101562
1713722595184198078,-0.002130528911948204,-0.001065264455974102,-0.019174760207533836,-0.06703764945268631,-0.7948749661445618,9.891644477844238
1713722595194198078,-0.002130528911948204,-0.001065264455974102,-0.019174760207533836,-0.08858545869588852,-0.8044517636299133,9.891644477844238
1713722595203198078,-0.002130528911948204,-0.002130528911948204,-0.01810949482023716,-0.09816227108240128,-0.8164227604866028,9.886856079101562
1713722595213198078,-0.002130528911948204,-0.002130528911948204,-0.01810949482023716,-0.08259996026754379,-0.8056488633155823,9.889249801635742
1713722595222198078,-0.002130528911948204,-0.002130528911948204,-0.01810949482023716,-0.07781155407428741,-0.7984662652015686,9.891644477844238
1713722595232198078,-0.002130528911948204,-0.001065264455974102,-0.019174760207533836,-0.08858545869588852,-0.8200140595436096,9.884461402893066
1713722595241198078,-0.002130528911948204,-0.001065264455974102,-0.01810949482023716,-0.0933738648891449,-0.8212111592292786,9.884461402893066
1713722595251198078,-0.002130528911948204,-0.001065264455974102,-0.019174760207533836,-0.08499415963888168,-0.8020575642585754,9.894038200378418
1713722595260198078,-0.002130528911948204,-0.001065264455974102,-0.019174760207533836,-0.08379705995321274,-0.8044517636299133,9.892841339111328
1713722595270198078,-0.002130528911948204,-0.001065264455974102,-0.019174760207533836,-0.10175357013940811,-0.8224082589149475,9.889249801635742
1713722595280198078,-0.002130528911948204,-0.001065264455974102,-0.019174760207533836,-0.09816227108240128,-0.8236053586006165,9.888052940368652
1713722595289198078,-0.001065264455974102,-0.001065264455974102,-0.01810949482023716,-0.0802057534456253,-0.8020575642585754,9.894038200378418
1713722595299198078,-0.002130528911948204,-0.001065264455974102,-0.01810949482023716,-0.08619125932455063,-0.7996633648872375,9.894038200378418
1713722595309198078,-0.002130528911948204,-0.001065264455974102,-0.01810949482023716,-0.09816227108240128,-0.8224082589149475,9.886856079101562
1713722595318198078,-0.001065264455974102,-0.002130528911948204,-0.01810949482023716,-0.0933738648891449,-0.8188169598579407,9.888052940368652
1713722595328198078,-0.002130528911948204,-0.002130528911948204,-0.019174760207533836,-0.07900865375995636,-0.7996633648872375,9.892841339111328
1713722595337198078,-0.002130528911948204,-0.002130528911948204,-0.019174760207533836,-0.08619125932455063,-0.8008604645729065,9.888052940368652
1713722595347198078,-0.002130528911948204,-0.002130528911948204,-0.019174760207533836,-0.10295066982507706,-0.8152256608009338,9.884461402893066
1713722595357198078,-0.001065264455974102,-0.001065264455974102,-0.019174760207533836,-0.09696516394615173,-0.8176198601722717,9.885658264160156
1713722595366198078,-0.002130528911948204,-0.002130528911948204,-0.019174760207533836,-0.07900865375995636,-0.8032546639442444,9.892841339111328
1713722595376198078,-0.002130528911948204,-0.001065264455974102,-0.019174760207533836,-0.08140285313129425,-0.8080430626869202,9.897629737854004
1713722595386198078,-0.002130528911948204,-0.001065264455974102,-0.019174760207533836,-0.090979665517807,-0.8188169598579407,9.891644477844238
1713722595395198078,-0.002130528911948204,-0.002130528911948204,-0.019174760207533836,-0.07900865375995636,-0.8104372620582581,9.88086986541748
1713722595404198078,-0.002130528911948204,-0.002130528911948204,-0.019174760207533836,-0.07182604819536209,-0.8008604645729065,9.885658264160156
1713722595414198078,-0.002130528911948204,-0.001065264455974102,-0.019174760207533836,-0.090979665517807,-0.8104372620582581,9.892841339111328
1713722595423198078,-0.002130528911948204,-0.001065264455974102,-0.01810949482023716,-0.10175357013940811,-0.8176198601722717,9.889249801635742
1713722595433198078,-0.002130528911948204,-0.001065264455974102,-0.01810949482023716,-0.08619125932455063,-0.8032546639442444,9.889249801635742
1713722595443198078,-0.002130528911948204,-0.002130528911948204,-0.01810949482023716,-0.07661445438861847,-0.7984662652015686,9.895235061645508
1713722595453198078,-0.002130528911948204,-0.001065264455974102,-0.01810949482023716,-0.08619125932455063,-0.8152256608009338,9.891644477844238
1713722595462198078,-0.001065264455974102,-0.001065264455974102,-0.019174760207533836,-0.09457096457481384,-0.8200140595436096,9.885658264160156
1713722595471198078,-0.002130528911948204,-0.001065264455974102,-0.01810949482023716,-0.08499415963888168,-0.8056488633155823,9.889249801635742
1713722595481198078,-0.002130528911948204,-0.001065264455974102,-0.019174760207533836,-0.07422025501728058,-0.7984662652015686,9.892841339111328
1713722595491198078,-0.001065264455974102,-0.001065264455974102,-0.019174760207533836,-0.08738835901021957,-0.8104372620582581,9.888052940368652
1713722595500198078,-0.002130528911948204,-0.001065264455974102,-0.019174760207533836,-0.09217676520347595,-0.8176198601722717,9.884461402893066
1713722595510198078,-0.002130528911948204,-0.001065264455974102,-0.01810949482023716,-0.07541735470294952,-0.8020575642585754,9.894038200378418
1713722595519198078,-0.002130528911948204,-0.001065264455974102,-0.019174760207533836,-0.07182604819536209,-0.7996633648872375,9.895235061645508
1713722595530198078,-0.002130528911948204,-0.002130528911948204,-0.019174760207533836,-0.08978256583213806,-0.8176198601722717,9.889249801635742
1713722595539198078,-0.002130528911948204,-0.002130528911948204,-0.019174760207533836,-0.10055647045373917,-0.8212111592292786,9.888052940368652
1713722595548198078,-0.002130528911948204,-0.001065264455974102,-0.01810949482023716,-0.08738835901021957,-0.8080430626869202,9.892841339111328
1713722595557198078,-0.001065264455974102,-0.001065264455974102,-0.019174760207533836,-0.08140285313129425,-0.8044517636299133,9.900023460388184
1713722595567198078,-0.002130528911948204,-0.001065264455974102,-0.01810949482023716,-0.09576806426048279,-0.8164227604866028,9.896432876586914
1713722595577198078,-0.002130528911948204,-0.002130528911948204,-0.01810949482023716,-0.09696516394615173,-0.8152256608009338,9.892841339111328
1713722595586198078,-0.002130528911948204,-0.002130528911948204,-0.01810949482023716,-0.07541735470294952,-0.8008604645729065,9.894038200378418
1713722595596198078,-0.002130528911948204,-0.001065264455974102,-0.01810949482023716,-0.07422025501728058,-0.8056488633155823,9.890446662902832
1713722595606198078,-0.002130528911948204,-0.002130528911948204,-0.019174760207533836,-0.09457096457481384,-0.8224082589149475,9.891644477844238
1713722595615198078,-0.002130528911948204,-0.002130528911948204,-0.01810949482023716,-0.0933738648891449,-0.8164227604866028,9.897629737854004
1713722595625198078,-0.002130528911948204,-0.001065264455974102,-0.01810949482023716,-0.07900865375995636,-0.7984662652015686,9.897629737854004
1713722595634198078,-0.002130528911948204,-0.002130528911948204,-0.019174760207533836,-0.08738835901021957,-0.8140285611152649,9.895235061645508
1713722595644198078,-0.001065264455974102,-0.001065264455974102,-0.019174760207533836,-0.10295066982507706,-0.834379255771637,9.891644477844238
1713722595653198078,-0.002130528911948204,-0.001065264455974102,-0.01810949482023716,-0.09696516394615173,-0.8224082589149475,9.90122127532959
1713722595663198078,-0.002130528911948204,-0.002130528911948204,-0.01810949482023716,-0.07781155407428741,-0.8092401623725891,9.90481185913086
1713722595673198078,-0.001065264455974102,-0.002130528911948204,-0.019174760207533836,-0.08259996026754379,-0.8152256608009338,9.894038200378418
1713722595682198078,-0.002130528911948204,-0.001065264455974102,-0.01810949482023716,-0.09576806426048279,-0.8212111592292786,9.884461402893066
1713722595692198078,-0.002130528911948204,-0.002130528911948204,-0.01810949482023716,-0.09217676520347595,-0.8104372620582581,9.884461402893066
1713722595701198078,-0.001065264455974102,-0.002130528911948204,-0.019174760207533836,-0.0802057534456253,-0.8032546639442444,9.886856079101562
1713722595711198078,-0.001065264455974102,-0.001065264455974102,-0.019174760207533836,-0.08259996026754379,-0.8164227604866028,9.889249801635742
1713722595720198078,-0.002130528911948204,-0.001065264455974102,-0.01810949482023716,-0.09457096457481384,-0.8224082589149475,9.892841339111328
1713722595730198078,-0.002130528911948204,-0.002130528911948204,-0.01810949482023716,-0.08858545869588852,-0.8092401623725891,9.897629737854004
1713722595740198078,-0.002130528911948204,-0.001065264455974102,-0.019174760207533836,-0.08619125932455063,-0.7984662652015686,9.896432876586914
1713722595749198078,-0.001065264455974102,-0.002130528911948204,-0.019174760207533836,-0.09457096457481384,-0.812831461429596,9.885658264160156
1713722595759198078,-0.001065264455974102,-0.002130528911948204,-0.01810949482023716,-0.10055647045373917,-0.8236053586006165,9.8784761428833
1713722595769198078,-0.001065264455974102,-0.001065264455974102,-0.01810949482023716,-0.08978256583213806,-0.8032546639442444,9.884461402893066
1713722595778198078,-0.002130528911948204,-0.001065264455974102,-0.01810949482023716,-0.07900865375995636,-0.8008604645729065,9.894038200378418
1713722595788198078,-0.002130528911948204,-0.002130528911948204,-0.019174760207533836,-0.09217676520347595,-0.8164227604866028,9.890446662902832
1713722595797198078,-0.002130528911948204,-0.002130528911948204,-0.01810949482023716,-0.090979665517807,-0.8236053586006165,9.888052940368652
1713722595807198078,-0.002130528911948204,-0.002130528911948204,-0.01810949482023716,-0.06703764945268631,-0.8104372620582581,9.892841339111328
1713722595816198078,-0.002130528911948204,-0.001065264455974102,-0.019174760207533836,-0.06823474913835526,-0.8020575642585754,9.895235061645508
1713722595826198078,-0.002130528911948204,-0.001065264455974102,-0.01810949482023716,-0.08978256583213806,-0.8152256608009338,9.892841339111328
1713722595836198078,-0.002130528911948204,-0.001065264455974102,-0.019174760207533836,-0.0933738648891449,-0.8152256608009338,9.891644477844238
1713722595845198078,-0.002130528911948204,-0.002130528911948204,-0.019174760207533836,-0.08140285313129425,-0.8056488633155823,9.895235061645508
1713722595855198078,-0.002130528911948204,-0.001065264455974102,-0.019174760207533836,-0.0802057534456253,-0.8068459630012512,9.897629737854004
1713722595864198078,-0.002130528911948204,-0.001065264455974102,-0.019174760207533836,-0.09217676520347595,-0.8248024582862854,9.891644477844238
1713722595874198078,-0.002130528911948204,-0.001065264455974102,-0.01810949482023716,-0.090979665517807,-0.8188169598579407,9.891644477844238
1713722595883198078,-0.002130528911948204,-0.001065264455974102,-0.01810949482023716,-0.07302314788103104,-0.7948749661445618,9.900023460388184
1713722595893198078,-0.002130528911948204,-0.001065264455974102,-0.019174760207533836,-0.07900865375995636,-0.8044517636299133,9.894038200378418
1713722595902198078,-0.002130528911948204,-0.001065264455974102,-0.019174760207533836,-0.09816227108240128,-0.8248024582862854,9.882067680358887
1713722595913198078,-0.002130528911948204,-0.002130528911948204,-0.01810949482023716,-0.08140285313129425,-0.812831461429596,9.889249801635742
1713722595922198078,-0.002130528911948204,-0.001065264455974102,-0.019174760207533836,-0.06823474913835526,-0.7984662652015686,9.900023460388184
1713722595931198078,-0.002130528911948204,-0.001065264455974102,-0.019174760207533836,-0.08738835901021957,-0.811634361743927,9.891644477844238
1713722595941198078,-0.002130528911948204,-0.001065264455974102,-0.019174760207533836,-0.10175357013940811,-0.8224082589149475,9.882067680358887
1713722595951198078,-0.002130528911948204,-0.002130528911948204,-0.01810949482023716,-0.08499415963888168,-0.8080430626869202,9.890446662902832
1713722595960198078,-0.002130528911948204,-0.002130528911948204,-0.019174760207533836,-0.07781155407428741,-0.7936778664588928,9.900023460388184
1713722595970198078,-0.002130528911948204,-0.002130528911948204,-0.019174760207533836,-0.09457096457481384,-0.8092401623725891,9.896432876586914
1713722595979198078,-0.002130528911948204,-0.001065264455974102,-0.019174760207533836,-0.0933738648891449,-0.8259995579719543,9.889249801635742
1713722595989198078,-0.001065264455974102,-0.002130528911948204,-0.01810949482023716,-0.07541735470294952,-0.812831461429596,9.895235061645508
1713722595999198078,-0.001065264455974102,-0.002130528911948204,-0.019174760207533836,-0.07062894850969315,-0.8056488633155823,9.895235061645508
1713722596008198078,-0.002130528911948204,-0.002130528911948204,-0.019174760207533836,-0.08499415963888168,-0.8248024582862854,9.889249801635742
1713722596018198078,-0.002130528911948204,-0.001065264455974102,-0.019174760207533836,-0.09576806426048279,-0.8248024582862854,9.886856079101562
1713722596027198078,-0.002130528911948204,-0.002130528911948204,-0.019174760207533836,-0.07781155407428741,-0.8032546639442444,9.892841339111328
1713722596037198078,-0.002130528911948204,-0.001065264455974102,-0.019174760207533836,-0.07182604819536209,-0.8068459630012512,9.896432876586914
1713722596046198078,-0.002130528911948204,-0.001065264455974102,-0.01810949482023716,-0.0933738648891449,-0.8212111592292786,9.886856079101562
1713722596056198078,-0.002130528911948204,-0.001065264455974102,-0.01810949482023716,-0.090979665517807,-0.8140285611152649,9.883264541625977
1713722596065198078,-0.002130528911948204,-0.001065264455974102,-0.01810949482023716,-0.07781155407428741,-0.7984662652015686,9.895235061645508
1713722596076198078,-0.002130528911948204,-0.001065264455974102,-0.01810949482023716,-0.08978256583213806,-0.812831461429596,9.898826599121094
1713722596085198078,-0.002130528911948204,-0.001065264455974102,-0.019174760207533836,-0.10654197633266449,-0.8319850564002991,9.890446662902832
1713722596094198078,-0.002130528911948204,-0.002130528911948204,-0.019174760207533836,-0.09816227108240128,-0.8152256608009338,9.886856079101562
1713722596104198078,-0.002130528911948204,-0.002130528911948204,-0.01810949482023716,-0.07661445438861847,-0.7972691655158997,9.892841339111328
1713722596113198078,-0.002130528911948204,-0.002130528911948204,-0.019174760207533836,-0.08140285313129425,-0.8092401623725891,9.894038200378418
1713722596123198078,-0.002130528911948204,-0.001065264455974102,-0.01810949482023716,-0.09217676520347595,-0.8176198601722717,9.885658264160156
1713722596132198078,-0.002130528911948204,-0.002130528911948204,-0.01810949482023716,-0.08140285313129425,-0.8104372620582581,9.890446662902832
1713722596142198078,-0.002130528911948204,-0.001065264455974102,-0.01810949482023716,-0.07422025501728058,-0.7972691655158997,9.90481185913086
1713722596152198078,-0.003195793367922306,-0.001065264455974102,-0.019174760207533836,-0.090979665517807,-0.8056488633155823,9.896432876586914
1713722596161198078,-0.002130528911948204,-0.001065264455974102,-0.01810949482023716,-0.09935937076807022,-0.8248024582862854,9.87967300415039
1713722596171198078,-0.002130528911948204,-0.002130528911948204,-0.019174760207533836,-0.07781155407428741,-0.8104372620582581,9.884461402893066
1713722596180198078,-0.002130528911948204,-0.002130528911948204,-0.019174760207533836,-0.06344634294509888,-0.7948749661445618,9.90241813659668
1713722596190198078,-0.002130528911948204,-0.002130528911948204,-0.019174760207533836,-0.08499415963888168,-0.8152256608009338,9.900023460388184
1713722596200198078,-0.002130528911948204,-0.002130528911948204,-0.01810949482023716,-0.09696516394615173,-0.8271966576576233,9.883264541625977
1713722596209198078,-0.002130528911948204,-0.002130528911948204,-0.019174760207533836,-0.07900865375995636,-0.811634361743927,9.883264541625977
1713722596219198078,-0.002130528911948204,-0.001065264455974102,-0.019174760207533836,-0.07781155407428741,-0.8020575642585754,9.892841339111328
1713722596229198078,-0.002130528911948204,-0.001065264455974102,-0.019174760207533836,-0.10295066982507706,-0.8164227604866028,9.892841339111328
1713722596239198078,-0.002130528911948204,-0.002130528911948204,-0.01810949482023716,-0.104147769510746,-0.8200140595436096,9.88086986541748
1713722596248198078,-0.002130528911948204,-0.002130528911948204,-0.01810949482023716,-0.07900865375995636,-0.8020575642585754,9.884461402893066
1713722596257198078,-0.002130528911948204,-0.001065264455974102,-0.01810949482023716,-0.07661445438861847,-0.8020575642585754,9.892841339111328
1713722596267198078,-0.002130528911948204,-0.002130528911948204,-0.01810949482023716,-0.09576806426048279,-0.8212111592292786,9.892841339111328
1713722596276198078,-0.002130528911948204,-0.002130528911948204,-0.01810949482023716,-0.09457096457481384,-0.8176198601722717,9.891644477844238
1713722596286198078,-0.002130528911948204,-0.002130528911948204,-0.01810949482023716,-0.07182604819536209,-0.7972691655158997,9.894038200378418
1713722596296198078,-0.002130528911948204,-0.001065264455974102,-0.019174760207533836,-0.07900865375995636,-0.8056488633155823,9.890446662902832
1713722596306198078,-0.002130528911948204,-0.001065264455974102,-0.019174760207533836,-0.09816227108240128,-0.8295908570289612,9.884461402893066
1713722596315198078,-0.002130528911948204,-0.002130528911948204,-0.01810949482023716,-0.08858545869588852,-0.8164227604866028,9.888052940368652
1713722596324198078,-0.002130528911948204,-0.001065264455974102,-0.01810949482023716,-0.07422025501728058,-0.7960720658302307,9.896432876586914
1713722596334198078,-0.002130528911948204,-0.001065264455974102,-0.019174760207533836,-0.08738835901021957,-0.8068459630012512,9.896432876586914
1713722596343198078,-0.002130528911948204,-0.001065264455974102,-0.01810949482023716,-0.104147769510746,-0.8259995579719543,9.895235061645508
1713722596353198078,-0.001065264455974102,-0.002130528911948204,-0.01810949482023716,-0.08978256583213806,-0.8152256608009338,9.897629737854004
1713722596363198078,-0.002130528911948204,-0.001065264455974102,-0.01810949482023716,-0.07541735470294952,-0.7948749661445618,9.90122127532959
1713722596372198078,-0.002130528911948204,-0.002130528911948204,-0.019174760207533836,-0.09217676520347595,-0.8080430626869202,9.898826599121094
1713722596382198078,-0.002130528911948204,-0.001065264455974102,-0.019174760207533836,-0.10654197633266449,-0.8271966576576233,9.889249801635742
1713722596392198078,-0.002130528911948204,-0.002130528911948204,-0.01810949482023716,-0.08259996026754379,-0.811634361743927,9.892841339111328
1713722596401198078,-0.002130528911948204,-0.001065264455974102,-0.01810949482023716,-0.06823474913835526,-0.7936778664588928,9.897629737854004
1713722596410198078,-0.002130528911948204,-0.001065264455974102,-0.019174760207533836,-0.0933738648891449,-0.8092401623725891,9.889249801635742
1713722596420198078,-0.002130528911948204,-0.001065264455974102,-0.01810949482023716,-0.10654197633266449,-0.8236053586006165,9.882067680358887
1713722596429198078,-0.001065264455974102,-0.001065264455974102,-0.01810949482023716,-0.08499415963888168,-0.8080430626869202,9.895235061645508
1713722596439198078,-0.001065264455974102,-0.001065264455974102,-0.019174760207533836,-0.07422025501728058,-0.8008604645729065,9.906009674072266
1713722596449198078,-0.001065264455974102,-0.001065264455974102,-0.019174760207533836,-0.09217676520347595,-0.8164227604866028,9.898826599121094
1713722596459198078,-0.002130528911948204,-0.001065264455974102,-0.01810949482023716,-0.10175357013940811,-0.8188169598579407,9.891644477844238
1713722596468198078,-0.002130528911948204,-0.002130528911948204,-0.019174760207533836,-0.08140285313129425,-0.7996633648872375,9.895235061645508
1713722596478198078,-0.001065264455974102,-0.002130528911948204,-0.019174760207533836,-0.06703764945268631,-0.8020575642585754,9.900023460388184
1713722596487198078,-0.001065264455974102,-0.001065264455974102,-0.019174760207533836,-0.08978256583213806,-0.8271966576576233,9.888052940368652
1713722596497198078,-0.001065264455974102,-0.002130528911948204,-0.01810949482023716,-0.09696516394615173,-0.8271966576576233,9.886856079101562
1713722596506198078,-0.001065264455974102,-0.002130528911948204,-0.01810949482023716,-0.07781155407428741,-0.8044517636299133,9.897629737854004
1713722596516198078,-0.002130528911948204,-0.001065264455974102,-0.019174760207533836,-0.08259996026754379,-0.8008604645729065,9.897629737854004
1713722596525198078,-0.002130528911948204,-0.002130528911948204,-0.019174760207533836,-0.09935937076807022,-0.8224082589149475,9.888052940368652
1713722596535198078,-0.002130528911948204,-0.002130528911948204,-0.01810949482023716,-0.09816227108240128,-0.8224082589149475,9.884461402893066
1713722596545198078,-0.002130528911948204,-0.002130528911948204,-0.01810949482023716,-0.07541735470294952,-0.8044517636299133,9.892841339111328
1713722596554198078,-0.002130528911948204,-0.001065264455974102,-0.019174760207533836,-0.07781155407428741,-0.8152256608009338,9.892841339111328
1713722596564198078,-0.002130528911948204,-0.002130528911948204,-0.019174760207533836,-0.09935937076807022,-0.8307879567146301,9.885658264160156
1713722596573198078,-0.001065264455974102,-0.002130528911948204,-0.01810949482023716,-0.09217676520347595,-0.8140285611152649,9.889249801635742
1713722596583198078,-0.002130528911948204,-0.002130528911948204,-0.019174760207533836,-0.07900865375995636,-0.8008604645729065,9.898826599121094
1713722596593198078,-0.002130528911948204,-0.001065264455974102,-0.019174760207533836,-0.090979665517807,-0.8140285611152649,9.90361499786377
1713722596602198078,-0.002130528911948204,-0.001065264455974102,-0.019174760207533836,-0.10773907601833344,-0.8259995579719543,9.888052940368652
1713722596612198078,-0.001065264455974102,-0.002130528911948204,-0.01810949482023716,-0.090979665517807,-0.8104372620582581,9.884461402893066
1713722596622198078,-0.002130528911948204,-0.002130528911948204,-0.019174760207533836,-0.07781155407428741,-0.7972691655158997,9.897629737854004
1713722596631198078,-0.002130528911948204,-0.001065264455974102,-0.019174760207533836,-0.0933738648891449,-0.8140285611152649,9.900023460388184
1713722596641198078,-0.002130528911948204,-0.002130528911948204,-0.019174760207533836,-0.09696516394615173,-0.8212111592292786,9.892841339111328
1713722596650198078,-0.002130528911948204,-0.002130528911948204,-0.01810949482023716,-0.07422025501728058,-0.8044517636299133,9.890446662902832
1713722596660198078,-0.002130528911948204,-0.001065264455974102,-0.01810949482023716,-0.07062894850969315,-0.7948749661445618,9.894038200378418
1713722596669198078,-0.002130528911948204,-0.002130528911948204,-0.019174760207533836,-0.08978256583213806,-0.8140285611152649,9.886856079101562
1713722596679198078,-0.001065264455974102,-0.002130528911948204,-0.01810949482023716,-0.09217676520347595,-0.8271966576576233,9.883264541625977
1713722596688198078,-0.001065264455974102,-0.002130528911948204,-0.01810949482023716,-0.0802057534456253,-0.8068459630012512,9.896432876586914
1713722596698198078,-0.002130528911948204,-0.001065264455974102,-0.019174760207533836,-0.07661445438861847,-0.7996633648872375,9.90481185913086
1713722596707198078,-0.002130528911948204,-0.002130528911948204,-0.019174760207533836,-0.08978256583213806,-0.8200140595436096,9.891644477844238
1713722596717198078,-0.002130528911948204,-0.002130528911948204,-0.01810949482023716,-0.09457096457481384,-0.8259995579719543,9.883264541625977
1713722596726198078,-0.003195793367922306,-0.002130528911948204,-0.01810949482023716,-0.07900865375995636,-0.8020575642585754,9.896432876586914
1713722596736198078,-0.002130528911948204,-0.001065264455974102,-0.019174760207533836,-0.08259996026754379,-0.8008604645729065,9.90122127532959
1713722596746198078,-0.002130528911948204,-0.001065264455974102,-0.019174760207533836,-0.10534487664699554,-0.8248024582862854,9.890446662902832
1713722596755198078,-0.002130528911948204,-0.002130528911948204,-0.01810949482023716,-0.0933738648891449,-0.8188169598579407,9.882067680358887
1713722596765198078,-0.001065264455974102,-0.003195793367922306,-0.019174760207533836,-0.08619125932455063,-0.6619967818260193,10.286687850952148
1713722596775198078,0.012783173471689224,0.0,-0.017044231295585632,-0.08379705995321274,-0.5578489899635315,9.977835655212402
1713722596784198078,0.020240023732185364,0.006391586735844612,-0.017044231295585632,0.05027823522686958,-0.2059013396501541,9.983820915222168
1713722596794198078,0.04261057823896408,0.009587380103766918,-0.015978965908288956,0.03232172131538391,0.4704606235027313,10.730812072753906
1713722596803198078,0.06817692518234253,0.006391586735844612,-0.023435818031430244,-0.2537853717803955,0.5530605912208557,9.914388656616211
1713722596813198078,0.08096009492874146,0.003195793367922306,-0.01810949482023716,-0.3603273630142212,0.5865793824195862,8.938752174377441
1713722596822198078,0.049002163112163544,-0.002130528911948204,-0.01810949482023716,-0.043095629662275314,1.7776947021484375,10.57040023803711
1713722596832198078,0.055393751710653305,-0.013848437927663326,-0.023435818031430244,0.15322890877723694,2.343923330307007,11.063606262207031
1713722596842198078,0.037284255027770996,-0.013848437927663326,-0.02130528911948204,0.10773907601833344,1.4664485454559326,8.708908081054688
1713722596852198078,-0.014913702383637428,-0.002130528911948204,-0.02876213937997818,0.21188685297966003,1.6148890256881714,9.130288124084473
1713722596861198078,-0.04048004746437073,0.009587380103766918,-0.027696875855326653,0.22744916379451752,2.456450939178467,11.010933876037598
1713722596870198078,-0.013848437927663326,0.019174760207533836,-0.03195793181657791,-0.014365210197865963,1.5981296300888062,9.154230117797852
1713722596880198078,-0.05645901337265968,0.026631610468029976,-0.02130528911948204,-0.2825157940387726,1.1204863786697388,8.990227699279785
1713722596890198078,-0.04580637067556381,0.011717909015715122,-0.024501081556081772,-0.4357447028160095,1.7106571197509766,10.979808807373047
1713722596899198078,-0.020240023732185364,-0.006391586735844612,-0.02556634694337845,-0.5853822827339172,1.0546457767486572,9.410409927368164
1713722596909198078,-0.044741105288267136,-0.019174760207533836,-0.01065264455974102,-0.4225766062736511,0.8571242094039917,9.63306999206543
1713722596918198078,-0.03621898964047432,-0.034088462591171265,-0.024501081556081772,-0.11851298063993454,1.157596468925476,10.90798282623291
1713722596928198078,-0.02876213937997818,-0.024501081556081772,-0.009587380103766918,0.1604115068912506,0.6117185354232788,10.092757225036621
1713722596939058002,-0.05432848632335663,-0.003195793367922306,-0.017044231295585632,0.5123591423034668,0.295683890581131,10.522516250610352
1713722596948058002,-0.041545312851667404,0.023435818031430244,-0.020240023732185364,0.49559974670410156,-0.3196259140968323,9.890446662902832
1713722596957058002,-0.049002163112163544,0.04261057823896408,-0.017044231295585632,0.25019407272338867,-1.0414776802062988,9.186552047729492
1713722596967058002,-0.012783173471689224,0.022370552644133568,-0.026631610468029976,-0.45250412821769714,-1.235408067703247,9.561244010925293
1713722596977058002,0.002130528911948204,0.01065264455974102,0.001065264455974102,-0.7218518257141113,-0.751779317855835,9.501389503479004
1713722596986058002,0.012783173471689224,-0.001065264455974102,-0.024501081556081772,-0.31124621629714966,-0.28371289372444153,9.433154106140137
1713722596996058002,-0.04687163606286049,0.003195793367922306,-0.009587380103766918,-0.07062894850969315,-0.6153098344802856,9.786299705505371
1713722597006058002,-0.11078750342130661,-0.01065264455974102,-0.029827404767274857,-0.15682020783424377,-1.3850456476211548,11.03128433227539
1713722597015058002,-0.08628641813993454,-0.06711165606975555,-0.029827404767274857,-1.5430629253387451,-3.622427225112915,10.918756484985352
1713722597025058002,-0.05326322093605995,-0.1065264418721199,0.01065264455974102,-1.1516109704971313,-4.793191909790039,9.775525093078613
1713722597034058002,0.0,-0.08522115647792816,-0.020240023732185364,1.4760253429412842,-3.2393548488616943,9.618704795837402
1713722597044058002,0.02130528911948204,0.02130528911948204,-0.037284255027770996,2.455253839492798,-1.9129670858383179,9.832985877990723
1713722597054058002,0.03941478580236435,0.11717908829450607,-0.05752427875995636,1.434126853942871,-2.126051187515259,9.184157371520996
1713722597063058002,0.05326322093605995,0.1161138266324997,-0.058589544147253036,-0.8427590131759644,-2.7066450119018555,9.075221061706543
1713722597072058002,0.026631610468029976,0.058589544147253036,-0.017044231295585632,-1.5969325304031372,-2.2613234519958496,9.466672897338867
1713722597083058002,-0.022370552644133568,-0.020240023732185364,-0.03621898964047432,-0.8547300100326538,-1.0510544776916504,10.255562782287598
1713722597092058002,-0.0649811327457428,-0.055393751710653305,-0.009587380103766918,-0.7074865698814392,-0.9289502501487732,10.595539093017578
1713722597102058002,-0.07030745595693588,-0.07563377171754837,-0.026631610468029976,-0.4644751250743866,-1.9189525842666626,9.941922187805176
1713722597111058002,-0.03302319720387459,-0.05326322093605995,-0.001065264455974102,0.3172317147254944,-2.141613483428955,9.818620681762695
1713722597120058002,0.019174760207533836,0.003195793367922306,-0.026631610468029976,1.0666168928146362,-1.4413094520568848,10.042478561401367
1713722597130058002,0.052197955548763275,0.07669904083013535,-0.029827404767274857,0.651222825050354,-0.5542576909065247,10.809820175170898
1713722597140058002,0.09693906456232071,0.1022653877735138,-0.024501081556081772,-0.48722004890441895,-0.272938996553421,10.799046516418457
1713722597149058002,0.1022653877735138,0.07350324839353561,-0.012783173471689224,-1.2006921768188477,0.20231004059314728,10.399214744567871
1713722597159058002,0.12463594228029251,0.007456851191818714,0.004261057823896408,-1.4676456451416016,1.0307037830352783,9.823409080505371
1713722597169058002,0.10865697264671326,-0.05326322093605995,0.008522115647792816,-1.2713210582733154,1.7477672100067139,9.376891136169434
1713722597178058002,0.08735168725252151,-0.08309062570333481,0.02130528911948204,-0.4991910457611084,2.4588451385498047,9.560047149658203
1713722597188058002,0.05006742849946022,-0.07137271761894226,0.012783173471689224,0.447715699672699,2.5510218143463135,9.08719253540039
1713722597197058002,-0.008522115647792816,-0.03195793181657791,0.001065264455974102,0.9696516990661621,2.5007436275482178,9.080009460449219
1713722597207058002,-0.06178533658385277,0.006391586735844612,-0.007456851191818714,0.8236053586006165,2.4803929328918457,9.731232643127441
1713722597216058002,-0.09587380290031433,0.037284255027770996,-0.00532632227987051,0.50876784324646,2.0171148777008057,9.946710586547852
1713722597226058002,-0.1257012039422989,0.049002163112163544,-0.007456851191818714,0.243011474609375,1.2545616626739502,10.02691650390625
1713722597236058002,-0.13635385036468506,0.04687163606286049,-0.012783173471689224,-0.07541735470294952,0.5829880833625793,10.193313598632812
1713722597245058002,-0.1065264418721199,0.014913702383637428,-0.014913702383637428,-0.8068459630012512,-0.5159504413604736,10.320206642150879
1713722597255058002,-0.052197955548763275,-0.041545312851667404,-0.006391586735844612,-1.2186486721038818,-1.5286977291107178,10.079588890075684
1713722597264058002,0.001065264455974102,-0.06604639440774918,0.01810949482023716,-0.05027823522686958,-1.0259153842926025,9.804255485534668
1713722597274058002,0.05006742849946022,-0.04580637067556381,-0.022370552644133568,1.0570399761199951,-0.30047231912612915,9.305065155029297
1713722597283058002,0.034088462591171265,0.022370552644133568,-0.02130528911948204,1.0319008827209473,-0.0933738648891449,8.959102630615234
1713722597293058002,-0.027696875855326653,0.07030745595693588,-0.04261057823896408,0.6129156351089478,0.29807811975479126,10.120290756225586
1713722597302058002,-0.1203748807311058,0.08202536404132843,-0.037284255027770996,-0.05506663769483566,0.026336219161748886,11.692083358764648
1713722597312058002,-0.1161138266324997,-0.015978965908288956,-0.04048004746437073,-1.8100165128707886,-2.585737705230713,11.738770484924316
1713722597322058002,-0.05326322093605995,-0.12889699637889862,0.004261057823896408,-2.8167781829833984,-4.784811973571777,10.036493301391602
1713722597332058002,0.07669904083013535,-0.1342233121395111,0.024501081556081772,-0.0011971008498221636,-2.5270798206329346,9.965864181518555
1713722597341058002,0.19600865244865417,-0.06391586363315582,-0.044741105288267136,2.425326347351074,-0.29209259152412415,9.20091724395752
1713722597350058002,0.19281286001205444,0.05006742849946022,-0.04367584362626076,2.0147206783294678,0.05147533491253853,7.733271598815918
1713722597360058002,0.1203748807311058,0.12783172726631165,-0.04687163606286049,0.8559271097183228,1.1959037780761719,9.071630477905273
1713722597370058002,0.004261057823896408,0.13635385036468506,-0.03834952041506767,-0.3902548849582672,1.8638859987258911,9.976638793945312
1713722597379058002,-0.16511598229408264,0.09587380290031433,-0.01065264455974102,-1.1049240827560425,1.5502455234527588,10.481815338134766
1713722597389058002,-0.27164241671562195,0.02130528911948204,-0.030892668291926384,-1.5382745265960693,0.3076549172401428,11.0887451171875
1713722597398058002,-0.19600865244865417,-0.12783172726631165,-0.015978965908288956,-2.8359317779541016,-3.028665065765381,8.81664752960205
1713722597408058002,-0.10546118021011353,-0.17044231295585632,0.02876213937997818,-1.3982137441635132,-3.573345899581909,8.440757751464844
1713722597418058002,0.05752427875995636,-0.1342233121395111,-0.019174760207533836,2.0458452701568604,-1.1695674657821655,9.246406555175781
1713722597427058002,0.03195793181657791,0.002130528911948204,-0.019174760207533836,2.778470993041992,0.18794482946395874,10.5715970993042
1713722597437058002,-0.009587380103766918,0.1203748807311058,-0.052197955548763275,2.0685901641845703,0.3016694188117981,12.056002616882324
1713722597446058002,-0.10546118021011353,0.1757686287164688,-0.029827404767274857,0.447715699672699,-1.0295066833496094,12.49055004119873
1713722597456058002,-0.013848437927663326,0.041545312851667404,-0.05965480953454971,-2.9316999912261963,-4.067748546600342,11.083956718444824
1713722597465058002,0.07563377171754837,-0.04261057823896408,0.030892668291926384,-2.8107926845550537,-4.533421039581299,8.461108207702637
1713722597475058002,0.23116238415241241,-0.1161138266324997,-0.024501081556081772,0.33279404044151306,-1.3096283674240112,8.20612621307373
1713722597484058002,0.19281286001205444,-0.07669904083013535,-0.0511326938867569,1.1420341730117798,1.1731587648391724,8.598774909973145
1713722597494058002,0.12250541150569916,-0.02556634694337845,-0.07350324839353561,1.1192892789840698,2.2409727573394775,8.916007041931152
1713722597504058002,-0.02556634694337845,0.011717909015715122,-0.05965480953454971,0.9923965930938721,2.1499931812286377,9.612719535827637
1713722597513058002,-0.16298545897006989,0.030892668291926384,-0.08096009492874146,0.9038110971450806,1.6304513216018677,10.098742485046387
1713722597523058002,-0.25672873854637146,0.055393751710653305,-0.06604639440774918,0.9445125460624695,0.6488286256790161,9.398438453674316
1713722597532058002,-0.26631611585617065,0.07563377171754837,-0.08522115647792816,0.9445125460624695,-0.628477931022644,9.500192642211914
1713722597542058002,-0.15552860498428345,0.014913702383637428,-0.12676647305488586,-0.6919242739677429,-3.2345664501190186,8.90762710571289
1713722597552058002,-0.08415588736534119,-0.03834952041506767,-0.06817692518234253,-1.2473790645599365,-3.685873508453369,10.378864288330078
1713722597561058002,-0.002130528911948204,-0.06072007119655609,-0.10120011866092682,0.6835445761680603,-1.702277421951294,12.619836807250977
1713722597571058002,-0.03302319720387459,0.00532632227987051,-0.11185276508331299,1.8543092012405396,-1.259350061416626,12.480973243713379
1713722597580058002,0.03302319720387459,0.041545312851667404,-0.16085493564605713,0.8020575642585754,-2.721010208129883,10.591948509216309
1713722597590058002,0.08735168725252151,0.04580637067556381,-0.13102751970291138,-0.2214636504650116,-3.2369606494903564,8.379705429077148
1713722597599058002,0.18216021358966827,0.017044231295585632,-0.15233281254768372,0.4692635238170624,-1.1959037780761719,8.13789176940918
1713722597609058002,0.16085493564605713,0.024501081556081772,-0.17044231295585632,0.8678981065750122,0.812831461429596,8.890868186950684
1713722597619058002,0.07669904083013535,0.029827404767274857,-0.19600865244865417,0.7469909191131592,1.5131354331970215,9.23682975769043
1713722597628058002,-0.07456851005554199,0.03195793181657791,-0.19174760580062866,0.6440402269363403,1.3742717504501343,9.738415718078613
1713722597638058002,-0.18855179846286774,0.017044231295585632,-0.22583605349063873,0.4824316203594208,0.772130012512207,9.603142738342285
1713722597648058002,-0.25246766209602356,0.002130528911948204,-0.21518342196941376,0.5530605912208557,-0.16639702022075653,9.621099472045898
1713722597657058002,-0.1715075671672821,-0.05752427875995636,-0.25353294610977173,-0.047884032130241394,-2.365471124649048,9.544485092163086
1713722597666058002,-0.1257012039422989,-0.07669904083013535,-0.2173139452934265,0.2106897532939911,-3.6583402156829834,10.18493366241455
1713722597676058002,-0.04367584362626076,-0.029827404767274857,-0.24714134633541107,2.36307692527771,-2.8107926845550537,12.29781723022461
1713722597686058002,0.023435818031430244,0.052197955548763275,-0.2908172011375427,1.8830395936965942,-3.1519665718078613,12.109871864318848
1713722597695058002,0.11504855751991272,0.09693906456232071,-0.3004045784473419,-0.047884032130241394,-3.711012601852417,9.824606895446777
1713722597705058002,0.18429075181484222,0.08096009492874146,-0.28975191712379456,0.3471592366695404,-1.8136078119277954,8.823830604553223
1713722597715058002,0.21092236042022705,0.022370552644133568,-0.33555829524993896,0.8738836050033569,0.2849099934101105,8.71489429473877
1713722597724058002,0.13315805792808533,0.012783173471689224,-0.3281014561653137,0.5770025849342346,0.9792284965515137,8.323442459106445
1713722597734058002,-0.01810949482023716,0.01810949482023716,-0.34514567255973816,0.477643221616745,1.7741034030914307,9.836577415466309
1713722597743058002,-0.14700649678707123,0.02876213937997818,-0.3536677956581116,0.47405192255973816,1.5957354307174683,10.155006408691406
1713722597753058002,-0.23329290747642517,0.024501081556081772,-0.3536677956581116,0.4513069987297058,0.2717418968677521,8.707711219787598
1713722597762058002,-0.24501082301139832,0.003195793367922306,-0.37390780448913574,0.06703764945268631,-0.8810662031173706,9.363722801208496
1713722597772058002,-0.148071750998497,-0.052197955548763275,-0.3813646733760834,-0.3842693567276001,-2.7293899059295654,9.917980194091797
1713722597782058002,-0.1022653877735138,-0.05645901337265968,-0.3611246347427368,0.6871358752250671,-3.4955344200134277,11.324573516845703
1713722597792058002,-0.026631610468029976,0.0,-0.3845604658126831,2.3127987384796143,-3.1040823459625244,12.867636680603027
1713722597801058002,0.05006742849946022,0.07243797928094864,-0.4229099750518799,1.1707645654678345,-3.949235677719116,10.935516357421875
1713722597810058002,0.13528858125209808,0.10972223430871964,-0.3930825889110565,-0.008379706181585789,-3.47039532661438,8.923189163208008
1713722597820058002,0.22157500684261322,0.07350324839353561,-0.42397525906562805,0.7182605266571045,-1.0414776802062988,8.516175270080566
1713722597830058002,0.20026971399784088,0.047936901450157166,-0.42504051327705383,0.6368576288223267,1.0450689792633057,8.96628475189209
1713722597839058002,0.1022653877735138,0.03834952041506767,-0.44315001368522644,0.07900865375995636,1.8543092012405396,9.251194953918457
1713722597849058002,-0.05752427875995636,0.041545312851667404,-0.4314320981502533,0.0035913025494664907,1.721431016921997,9.362525939941406
1713722597858058002,-0.19813919067382812,0.03621898964047432,-0.45167210698127747,0.14724339544773102,1.191115379333496,9.356539726257324
1713722597868058002,-0.2641855776309967,0.026631610468029976,-0.43782368302345276,0.22625206410884857,0.16759411990642548,8.93276596069336
1713722597878058002,-0.21092236042022705,-0.03621898964047432,-0.4644553065299988,-0.39863458275794983,-2.1380221843719482,9.23323917388916
1713722597887058002,-0.1438107043504715,-0.08096009492874146,-0.4261057674884796,-0.7817068696022034,-3.973177671432495,11.4263277053833
1713722597897058002,-0.029827404767274857,-0.026631610468029976,-0.4090615510940552,1.1839326620101929,-3.928884983062744,12.955024719238281
1713722597906058002,0.05006742849946022,0.06817692518234253,-0.46658581495285034,1.9620482921600342,-3.556586503982544,11.803414344787598
1713722597916058002,0.14061491191387177,0.15126754343509674,-0.4506068527698517,0.6045359373092651,-2.778470993041992,9.410409927368164
1713722597925058002,0.20026971399784088,0.14594122767448425,-0.46552056074142456,0.090979665517807,-1.015141487121582,8.14028549194336
1713722597935058002,0.185356006026268,0.08735168725252151,-0.46125951409339905,-0.4297592043876648,0.6811503767967224,8.432377815246582
1713722597944058002,0.08628641813993454,0.015978965908288956,-0.47936898469924927,-0.9277531504631042,1.5322890281677246,9.198522567749023
1713722597955058002,-0.05965480953454971,-0.02556634694337845,-0.4442152678966522,-0.6344634294509888,1.5682021379470825,9.898826599121094
1713722597964058002,-0.19387812912464142,-0.03834952041506767,-0.4697816073894501,0.14844051003456116,0.9624690413475037,9.719261169433594
1713722597973058002,-0.25353294610977173,-0.01065264455974102,-0.44634580612182617,0.895431399345398,-0.013168109580874443,9.080009460449219
1713722597983058002,-0.21092236042022705,-0.003195793367922306,-0.49002164602279663,0.5781996846199036,-1.7729063034057617,9.696516990661621
1713722597992058002,-0.10865697264671326,-0.014913702383637428,-0.46232476830482483,-0.3447650372982025,-3.870227098464966,11.105504035949707
1713722598002058002,-0.024501081556081772,0.006391586735844612,-0.4410194754600525,0.4034229815006256,-3.9647979736328125,11.973402976989746
1713722598012058002,0.05432848632335663,0.07563377171754837,-0.46125951409339905,1.5179238319396973,-2.6635494232177734,11.231200218200684
1713722598021058002,0.1065264418721199,0.1438107043504715,-0.47617319226264954,0.8583213090896606,-2.1068973541259766,9.14704704284668
1713722598031058002,0.1299622654914856,0.15020228922367096,-0.4687163531780243,-0.05746084079146385,-0.9923965930938721,8.609549522399902
1713722598040058002,0.14700649678707123,0.09374327212572098,-0.4729773998260498,-0.6955155730247498,0.3734954595565796,8.701725959777832
1713722598050058002,0.06604639440774918,0.03621898964047432,-0.4548678994178772,-1.0797849893569946,1.0534486770629883,9.307458877563477
1713722598059058002,-0.05326322093605995,-0.004261057823896408,-0.45593318343162537,-0.712274968624115,1.2689268589019775,10.126276016235352
1713722598069058002,-0.16085493564605713,-0.01065264455974102,-0.45167210698127747,-0.18076223134994507,0.7445967197418213,9.564835548400879
1713722598078058002,-0.21092236042022705,-0.004261057823896408,-0.4601942300796509,0.264559268951416,-0.19153612852096558,9.182960510253906
1713722598088058002,-0.15872439742088318,-0.026631610468029976,-0.4687163531780243,0.008379706181585789,-1.8818424940109253,9.75397777557373
1713722598098058002,-0.09480853378772736,-0.02876213937997818,-0.436758428812027,-0.5602431893348694,-3.248931646347046,11.221623420715332
1713722598107058002,-0.014913702383637428,-0.002130528911948204,-0.44315001368522644,-0.181959331035614,-3.3614590167999268,12.291831016540527
1713722598118058002,0.06817692518234253,0.05006742849946022,-0.4314320981502533,0.25498247146606445,-3.1016881465911865,10.961852073669434
1713722598127058002,0.1257012039422989,0.10013485699892044,-0.41864892840385437,0.5566518902778625,-1.7106571197509766,9.11233139038086
1713722598136058002,0.20026971399784088,0.10759171098470688,-0.4261057674884796,0.3974374830722809,-0.14484919607639313,7.879317760467529
1713722598146058002,0.14700649678707123,0.1203748807311058,-0.41119205951690674,-0.5171475410461426,0.8738836050033569,8.333019256591797
1713722598155058002,0.029827404767274857,0.09906959533691406,-0.4133225977420807,-1.2030863761901855,1.665167212486267,10.132261276245117
1713722598165058002,-0.12463594228029251,0.04048004746437073,-0.3845604658126831,-1.644816517829895,1.3862427473068237,10.613495826721191
1713722598175058002,-0.2269013226032257,-0.022370552644133568,-0.3536677956581116,-1.4987702369689941,0.3292027413845062,10.188525199890137
1713722598184058002,-0.18642127513885498,-0.0788295716047287,-0.3430151343345642,-1.2904746532440186,-1.702277421951294,8.814253807067871
1713722598194058002,-0.1257012039422989,-0.07243797928094864,-0.3142530024051666,-0.6751648783683777,-2.6815059185028076,8.529343605041504
1713722598203058002,-0.04367584362626076,-0.015978965908288956,-0.3185140788555145,0.7134720683097839,-1.6496049165725708,10.35372543334961
1713722598213058002,-0.02130528911948204,0.092678003013134,-0.32170987129211426,1.091755986213684,-1.1623848676681519,12.228384971618652
1713722598222058002,0.05326322093605995,0.12357067316770554,-0.3376888334751129,-1.282094955444336,-2.7437551021575928,11.501745223999023
1713722598232058002,0.09480853378772736,0.08202536404132843,-0.26631611585617065,-2.8119897842407227,-3.3051953315734863,9.333795547485352
1713722598242058002,0.1533980816602707,0.01065264455974102,-0.2641855776309967,-1.3060369491577148,-1.0055646896362305,9.091980934143066
1713722598251058002,0.11398329585790634,-0.013848437927663326,-0.2514024078845978,-0.38546645641326904,0.8463503122329712,9.919177055358887
1713722598261058002,0.02130528911948204,0.002130528911948204,-0.24714134633541107,-0.4129997789859772,0.9205705523490906,9.744400978088379
1713722598270058002,-0.08948221057653427,0.03195793181657791,-0.222640261054039,-0.3974374830722809,0.44651859998703003,9.313444137573242
1713722598280058002,-0.14594122767448425,0.04580637067556381,-0.21518342196941376,-0.5147533416748047,-0.02513911761343479,9.493009567260742
1713722598289058002,-0.08096009492874146,0.011717909015715122,-0.20240023732185364,-1.4089876413345337,-1.6280571222305298,8.792705535888672
1713722598299058002,-0.0511326938867569,-0.019174760207533836,-0.16298545897006989,-1.643619418144226,-2.1990742683410645,9.154230117797852
1713722598309058002,-0.006391586735844612,-0.029827404767274857,-0.15659387409687042,-0.49799394607543945,-1.0402805805206299,10.9091796875
1713722598318058002,-0.041545312851667404,0.013848437927663326,-0.1438107043504715,0.23104046285152435,-0.7912836670875549,12.205639839172363
1713722598328058002,0.002130528911948204,0.023435818031430244,-0.15552860498428345,-0.9373299479484558,-2.4815900325775146,11.365275382995605
1713722598338058002,0.05752427875995636,0.012783173471689224,-0.10120011866092682,-2.163161277770996,-3.49314022064209,8.7484130859375
1713722598347058002,0.14700649678707123,-0.001065264455974102,-0.09374327212572098,-0.8559271097183228,-1.2557587623596191,8.26358699798584
1713722598356058002,0.17896442115306854,0.019174760207533836,-0.09906959533691406,0.3603273630142212,0.9217676520347595,8.904035568237305
1713722598366058002,0.10120011866092682,0.05645901337265968,-0.09161274135112762,0.04668693244457245,1.3958195447921753,9.425971984863281
1713722598376058002,-0.06072007119655609,0.07563377171754837,-0.07669904083013535,-0.591367781162262,1.2521674633026123,10.78348445892334
1713722598385058002,-0.2130528837442398,0.049002163112163544,-0.07030745595693588,-1.1109095811843872,0.104147769510746,11.857283592224121
1713722598395058002,-0.15659387409687042,-0.07989483326673508,-0.05752427875995636,-2.865859270095825,-3.4392707347869873,10.010157585144043
1713722598405058002,-0.05752427875995636,-0.1395496428012848,0.01810949482023716,-2.5893290042877197,-4.666298866271973,7.803900241851807
1713722598414058002,0.12889699637889862,-0.10759171098470688,-0.01810949482023716,0.8882488012313843,-1.5430629253387451,8.980650901794434
1713722598424058002,0.1533980816602707,0.01065264455974102,-0.034088462591171265,2.122459888458252,0.547075092792511,10.393229484558105
1713722598433058002,0.09480853378772736,0.11504855751991272,-0.0511326938867569,1.2773065567016602,0.5889735817909241,10.538078308105469
1713722598443058002,-0.04048004746437073,0.1715075671672821,-0.013848437927663326,0.20949263870716095,0.18914192914962769,10.922348022460938
1713722598452058002,-0.1065264418721199,0.11078750342130661,-0.02876213937997818,-1.987187385559082,-0.8032546639442444,11.291054725646973
1713722598462058002,-0.024501081556081772,-0.013848437927663326,0.03941478580236435,-3.2597055435180664,-2.8574795722961426,8.60116958618164
1713722598471058002,0.049002163112163544,-0.049002163112163544,0.0511326938867569,-1.4700398445129395,-2.005143880844116,7.892485618591309
1713722598481058002,0.14274543523788452,-0.047936901450157166,0.041545312851667404,0.20350714027881622,-0.014365210197865963,8.761581420898438
1713722598491058002,0.04687163606286049,0.01810949482023716,0.03621898964047432,0.32202011346817017,0.5374982953071594,9.86770248413086
1713722598500058002,-0.08522115647792816,0.06285060197114944,0.044741105288267136,-0.005985504016280174,0.7697358131408691,12.194866180419922
1713722598510058002,-0.17044231295585632,0.026631610468029976,0.037284255027770996,-1.7322049140930176,-0.9038110971450806,12.161347389221191
1713722598519058002,-0.07350324839353561,-0.10120011866092682,0.06391586363315582,-3.7014358043670654,-4.135983467102051,9.329007148742676
1713722598529058002,0.03515372797846794,-0.1257012039422989,0.14274543523788452,-1.4927847385406494,-3.489548921585083,8.276755332946777
1713722598539058002,0.20026971399784088,-0.09693906456232071,0.07243797928094864,1.3287819623947144,-0.773327112197876,8.559270858764648
1713722598548058002,0.13209278881549835,0.027696875855326653,0.11185276508331299,1.2976572513580322,0.365115761756897,9.337386131286621
1713722598558058002,0.03941478580236435,0.11504855751991272,0.1065264418721199,0.6093243360519409,1.3072340488433838,11.201272010803223
1713722598567058002,-0.10120011866092682,0.14274543523788452,0.1299622654914856,-0.6248866319656372,0.871489405632019,10.60511589050293
1713722598577058002,-0.14487595856189728,0.055393751710653305,0.1342233121395111,-2.698265314102173,-0.8068459630012512,10.38844108581543
1713722598586058002,-0.05752427875995636,-0.06072007119655609,0.1896170675754547,-3.647566318511963,-2.6360161304473877,8.256404876708984
1713722598596058002,0.02556634694337845,-0.08628641813993454,0.1992044448852539,-1.3467384576797485,-1.499967336654663,8.125920295715332
1713722598606058002,0.08096009492874146,-0.07563377171754837,0.1768338978290558,0.5925649404525757,-0.047884032130241394,9.600749015808105
1713722598615058002,-0.022370552644133568,-0.003195793367922306,0.16831177473068237,0.6129156351089478,-0.13168108463287354,10.958260536193848
1713722598625058002,-0.1299622654914856,0.02876213937997818,0.17789916694164276,0.4429273009300232,-0.5925649404525757,12.968193054199219
1713722598635058002,-0.07243797928094864,-0.05326322093605995,0.15233281254768372,-1.701080322265625,-3.573345899581909,10.589553833007812
1713722598644058002,-0.001065264455974102,-0.09161274135112762,0.24501082301139832,-2.3535001277923584,-4.527435302734375,8.058882713317871
1713722598653058002,0.16405072808265686,-0.058589544147253036,0.21092236042022705,0.07541735470294952,-1.5107412338256836,8.29830265045166
1713722598663058002,0.1672465205192566,0.030892668291926384,0.21944446861743927,0.9959878921508789,0.9349357485771179,9.412803649902344
1713722598672058002,0.10013485699892044,0.09161274135112762,0.20559602975845337,0.18914192914962769,1.5107412338256836,9.900023460388184
1713722598682058002,-0.06178533658385277,0.10546118021011353,0.2460760921239853,-0.9828197956085205,1.1288660764694214,10.374075889587402
1713722598692058002,-0.1768338978290558,0.02556634694337845,0.23542344570159912,-2.1057002544403076,0.28730419278144836,11.635820388793945
1713722598701058002,-0.13102751970291138,-0.11078750342130661,0.2865561246871948,-3.250128746032715,-2.4145524501800537,9.503783226013184
1713722598712058002,-0.07669904083013535,-0.14061491191387177,0.31744879484176636,-1.8327614068984985,-3.251325845718384,8.1139497756958
1713722598721058002,0.01810949482023716,-0.10120011866092682,0.2833603322505951,0.8056488633155823,-1.6591817140579224,9.815030097961426
1713722598730058002,-0.013848437927663326,-0.008522115647792816,0.28549087047576904,1.5682021379470825,-0.9648632407188416,11.305419921875
1713722598740058002,0.002130528911948204,0.03621898964047432,0.2514024078845978,0.3064578175544739,-1.5682021379470825,11.768698692321777
1713722598750058002,0.05645901337265968,0.013848437927663326,0.2790992856025696,-1.4413094520568848,-2.9436709880828857,9.716867446899414
1713722598759058002,0.1022653877735138,-0.007456851191818714,0.30786141753196716,-1.0067617893218994,-1.84233820438385,8.894458770751953
1713722598769058002,0.15233281254768372,0.002130528911948204,0.2833603322505951,-0.1364694982767105,-0.08858545869588852,8.979453086853027
1713722598778058002,0.08415588736534119,0.024501081556081772,0.2929477095603943,-0.26815059781074524,0.3603273630142212,9.245209693908691
1713722598788058002,-0.017044231295585632,0.004261057823896408,0.296143501996994,-0.5566518902778625,0.7098807692527771,10.187328338623047
1713722598798058002,-0.10972223430871964,-0.030892668291926384,0.3014698326587677,-0.7242460250854492,0.4453215003013611,9.805453300476074
1713722598807058002,-0.12144014239311218,-0.052197955548763275,0.3067961633205414,-0.8379705548286438,-0.4129997789859772,8.945934295654297
1713722598816058002,-0.08096009492874146,-0.0649811327457428,0.3004045784473419,-0.954089343547821,-1.403002142906189,8.711302757263184
1713722598826058002,-0.05965480953454971,-0.05752427875995636,0.30892667174339294,-0.3148375153541565,-1.4987702369689941,10.404003143310547
1713722598835058002,-0.04261057823896408,-0.06604639440774918,0.2790992856025696,0.19871874153614044,-1.930923581123352,12.52526569366455
1713722598845058002,-0.029827404767274857,-0.10865697264671326,0.287621408700943,-0.04908113554120064,-3.4332852363586426,12.164938926696777
1713722598855058002,0.01810949482023716,-0.10759171098470688,0.2865561246871948,0.9923965930938721,-3.469198226928711,10.037690162658691
1713722598865058002,0.11504855751991272,-0.02130528911948204,0.258859246969223,2.2469582557678223,-1.9584569931030273,8.374917030334473
1713722598874058002,0.18322548270225525,0.11930961906909943,0.2322276532649994,1.5849615335464478,-0.49320554733276367,8.367734909057617
1713722598883058002,0.19281286001205444,0.16937704384326935,0.2130528837442398,-0.13407529890537262,0.477643221616745,8.889670372009277
1713722598893058002,0.09480853378772736,0.10333064943552017,0.23116238415241241,-1.4724340438842773,1.0857704877853394,9.859322547912598
1713722598903058002,-0.05432848632335663,-0.01810949482023716,0.23329290747642517,-1.7405846118927002,1.1755529642105103,10.729615211486816
1713722598912058002,-0.1619201898574829,-0.12250541150569916,0.23435817658901215,-1.0965443849563599,0.38546645641326904,9.690530776977539
1713722598922058002,-0.1896170675754547,-0.15978966653347015,0.2364886999130249,-0.15083470940589905,-0.6260837316513062,8.878896713256836
1713722598931058002,-0.12463594228029251,-0.14274543523788452,0.21198762953281403,0.5410895943641663,-1.9129670858383179,9.29189682006836
1713722598942058002,-0.06285060197114944,-0.09587380290031433,0.19387812912464142,1.2497732639312744,-2.736572504043579,10.609904289245605
1713722598951058002,-0.006391586735844612,-0.05006742849946022,0.16937704384326935,1.9548656940460205,-2.63362193107605,11.659762382507324
1713722598961058002,0.03834952041506767,-0.003195793367922306,0.13848437368869781,1.9369091987609863,-2.630030632019043,10.960655212402344
1713722598970058002,0.08522115647792816,0.047936901450157166,0.1299622654914856,1.3215993642807007,-2.208651065826416,9.774328231811523
1713722598980058002,0.12783172726631165,0.09374327212572098,0.11291802674531937,0.629675030708313,-1.0402805805206299,9.114726066589355
1713722598989058002,0.12889699637889862,0.09693906456232071,0.09587380290031433,-0.2214636504650116,-0.06464344263076782,9.26675796508789
1713722598998058002,0.07669904083013535,0.03834952041506767,0.10013485699892044,-0.9804255962371826,0.304063618183136,9.684545516967773
1713722599008058002,-0.012783173471689224,-0.0511326938867569,0.09800432622432709,-1.039083480834961,0.3627215623855591,9.835380554199219
1713722599018058002,-0.08415588736534119,-0.11824434995651245,0.09800432622432709,-0.2849099934101105,0.12928688526153564,9.593565940856934
1713722599027058002,-0.10333064943552017,-0.12357067316770554,0.09054747968912125,0.8068459630012512,-0.43694180250167847,8.973467826843262
1713722599037058002,-0.0884169489145279,-0.05645901337265968,0.07243797928094864,1.644816517829895,-0.9756371974945068,8.945934295654297
1713722599046058002,-0.06711165606975555,0.027696875855326653,0.049002163112163544,1.7932569980621338,-1.3718775510787964,10.371681213378906
1713722599056058002,-0.003195793367922306,0.03941478580236435,0.015978965908288956,0.1628057062625885,-2.8107926845550537,11.838129997253418
1713722599066058002,0.037284255027770996,-0.008522115647792816,0.044741105288267136,-1.2401964664459229,-3.908534288406372,11.7232084274292
1713722599075058002,0.07989483326673508,-0.04580637067556381,0.04580637067556381,0.038307227194309235,-2.276885747909546,10.648211479187012
1713722599085058002,0.1395496428012848,-0.027696875855326653,0.009587380103766918,1.315613865852356,-0.5889735817909241,8.597578048706055
1713722599094058002,0.13741911947727203,0.03941478580236435,-0.004261057823896408,1.091755986213684,0.08619125932455063,7.590816497802734
1713722599104058002,0.08735168725252151,0.08202536404132843,-0.01810949482023716,0.32202011346817017,1.0259153842926025,8.850166320800781
1713722599114058002,-0.01810949482023716,0.06604639440774918,-0.015978965908288956,-0.5554547905921936,1.278503656387329,10.170568466186523
1713722599123058002,-0.14913702011108398,0.006391586735844612,-0.002130528911948204,-1.0833762884140015,0.5961562395095825,10.84094524383545
1713722599133058002,-0.16085493564605713,-0.09587380290031433,-0.003195793367922306,-1.8028337955474854,-1.5682021379470825,10.399214744567871
1713722599142058002,-0.10013485699892044,-0.16831177473068237,0.02876213937997818,-1.4496891498565674,-3.2381577491760254,9.070432662963867
1713722599152058002,0.022370552644133568,-0.1395496428012848,0.030892668291926384,1.095347285270691,-1.8830395936965942,9.169792175292969
1713722599161058002,0.09800432622432709,-0.02130528911948204,-0.007456851191818714,2.4815900325775146,-0.4944026470184326,9.744400978088379
1713722599171058002,0.06817692518234253,0.11078750342130661,-0.019174760207533836,1.9261351823806763,-0.4297592043876648,10.249577522277832
1713722599181058002,-0.03515372797846794,0.17896442115306854,-0.020240023732185364,0.7769184112548828,-0.44412440061569214,11.66574764251709
1713722599191058002,-0.041545312851667404,0.07137271761894226,-0.041545312851667404,-2.030282974243164,-2.2661118507385254,11.566388130187988
1713722599200058002,0.012783173471689224,-0.055393751710653305,0.03195793181657791,-3.428496837615967,-3.869029998779297,9.17936897277832
1713722599209058002,0.11930961906909943,-0.09906959533691406,0.015978965908288956,-0.8415618538856506,-1.3108254671096802,8.689754486083984
1713722599219058002,0.1896170675754547,-0.07989483326673508,-0.006391586735844612,1.3311761617660522,0.9397241473197937,8.610746383666992
1713722599228058002,0.11185276508331299,-0.006391586735844612,-0.03621898964047432,1.2449848651885986,1.0091559886932373,8.538920402526855
1713722599238058002,-0.03941478580236435,0.037284255027770996,-0.02130528911948204,0.606930136680603,1.2306196689605713,10.799046516418457
1713722599248058002,-0.1810949593782425,0.04261057823896408,-0.020240023732185364,0.12090718746185303,0.5195417404174805,11.292252540588379
1713722599258058002,-0.2407497614622116,0.014913702383637428,-0.007456851191818714,-1.0785878896713257,-1.3623007535934448,11.107898712158203
1713722599267058002,-0.09054747968912125,-0.08628641813993454,-0.027696875855326653,-2.47560453414917,-4.290409564971924,8.65982723236084
1713722599276058002,0.041545312851667404,-0.08415588736534119,0.06604639440774918,-0.42377370595932007,-3.4368765354156494,8.426392555236816
1713722599286058002,0.1949433982372284,-0.052197955548763275,-0.030892668291926384,1.941697597503662,-0.7230489253997803,9.514557838439941
1713722599296058002,0.1022653877735138,0.05752427875995636,0.006391586735844612,1.721431016921997,0.08978256583213806,10.323797225952148
1713722599305058002,-0.02876213937997818,0.11291802674531937,-0.037284255027770996,0.9588777422904968,0.6979097723960876,12.351686477661133
1713722599315058002,-0.13741911947727203,0.09054747968912125,-0.027696875855326653,-0.529118537902832,-0.3687070608139038,11.707646369934082
1713722599324058002,-0.06285060197114944,-0.04048004746437073,-0.026631610468029976,-2.5318682193756104,-3.177105665206909,8.795100212097168
1713722599334058002,0.019174760207533836,-0.07989483326673508,0.027696875855326653,-1.7142484188079834,-2.8610708713531494,7.730876922607422
1713722599344058002,0.16511598229408264,-0.08096009492874146,-0.012783173471689224,0.7422025203704834,-0.48482584953308105,8.271966934204102
1713722599353058002,0.08096009492874146,0.00532632227987051,-0.013848437927663326,1.3886369466781616,0.6763619780540466,9.793481826782227
1713722599363058002,-0.020240023732185364,0.07137271761894226,-0.019174760207533836,1.1216834783554077,1.2210428714752197,11.82496166229248
1713722599372058002,-0.148071750998497,0.09800432622432709,-0.02130528911948204,0.2753331959247589,-0.0454898327589035,11.285069465637207
1713722599382058002,-0.09587380290031433,-0.00532632227987051,-0.03302319720387459,-1.9752163887023926,-2.9245173931121826,9.516951560974121
1713722599391058002,-0.004261057823896408,-0.07243797928094864,0.03515372797846794,-2.3331494331359863,-3.555389404296875,7.862558364868164
1713722599401058002,0.15659387409687042,-0.09480853378772736,0.004261057823896408,0.0586579404771328,-0.8307879567146301,8.289923667907715
1713722599411058002,0.11930961906909943,-0.026631610468029976,-0.006391586735844612,1.2844891548156738,1.114500880241394,10.182539939880371
1713722599420058002,0.01810949482023716,0.052197955548763275,-0.029827404767274857,1.182735562324524,1.2222399711608887,11.480196952819824
1713722599430058002,-0.14913702011108398,0.09587380290031433,-0.020240023732185364,0.5566518902778625,0.181959331035614,11.309011459350586
1713722599439012081,-0.14700649678707123,-0.003195793367922306,-0.052197955548763275,-1.544260025024414,-2.5127146244049072,10.427945137023926
1713722599449012081,-0.03621898964047432,-0.09906959533691406,0.027696875855326653,-2.5929203033447266,-4.37420654296875,8.200140953063965
1713722599458012081,0.1342233121395111,-0.10439591109752655,0.01810949482023716,0.23104046285152435,-1.7824831008911133,8.702922821044922
1713722599468012081,0.19174760580062866,-0.037284255027770996,-0.023435818031430244,1.8602946996688843,0.4884171485900879,9.543288230895996
1713722599478012081,0.1065264418721199,0.052197955548763275,-0.020240023732185364,1.213860273361206,0.6643909811973572,10.073603630065918
1713722599488012081,-0.04580637067556381,0.1065264418721199,-0.011717909015715122,0.7613561153411865,0.6117185354232788,11.771092414855957
1713722599497012081,-0.18216021358966827,0.1065264418721199,-0.022370552644133568,0.04429272934794426,-0.2669534981250763,11.2467622756958
1713722599506012081,-0.12783172726631165,-0.001065264455974102,-0.027696875855326653,-1.8495208024978638,-2.8778305053710938,8.78193187713623
1713722599516012081,-0.02556634694337845,-0.055393751710653305,0.030892668291926384,-2.140416383743286,-3.550601005554199,7.560888767242432
1713722599526012081,0.14061491191387177,-0.05645901337265968,0.009587380103766918,0.07062894850969315,-0.9385270476341248,8.489839553833008
1713722599535012081,0.10120011866092682,0.007456851191818714,-0.003195793367922306,1.2557587623596191,1.0043675899505615,10.788272857666016
1713722599545012081,0.00532632227987051,0.07137271761894226,-0.024501081556081772,1.0426747798919678,0.8678981065750122,11.978191375732422
1713722599554012081,-0.15659387409687042,0.092678003013134,-0.01065264455974102,0.2992752194404602,-0.4991910457611084,12.132616996765137
1713722599564012081,-0.09374327212572098,-0.03195793181657791,-0.052197955548763275,-2.078166961669922,-3.755305290222168,10.24239444732666
1713722599573012081,0.007456851191818714,-0.09693906456232071,0.05432848632335663,-2.3295581340789795,-4.763264179229736,7.879317760467529
1713722599583012081,0.20240023732185364,-0.09906959533691406,-0.006391586735844612,0.5327098965644836,-1.546654224395752,8.669404029846191
1713722599592012081,0.2130528837442398,-0.00532632227987051,-0.01810949482023716,1.6065093278884888,0.8583213090896606,9.307458877563477
1713722599602012081,0.13741911947727203,0.06711165606975555,-0.03515372797846794,1.1887211799621582,1.6412252187728882,9.786299705505371
1713722599612012081,-0.02876213937997818,0.10333064943552017,-0.011717909015715122,0.5051765441894531,1.4413094520568848,10.722432136535645
1713722599621012081,-0.18002969026565552,0.09054747968912125,-0.020240023732185364,-0.0802057534456253,0.773327112197876,10.697293281555176
1713722599631012081,-0.20240023732185364,0.037284255027770996,-0.013848437927663326,-1.5705963373184204,-0.9672574996948242,9.825803756713867
1713722599640012081,-0.07989483326673508,-0.06285060197114944,-0.006391586735844612,-2.5486276149749756,-3.313575029373169,8.163030624389648
1713722599650012081,0.03515372797846794,-0.06817692518234253,0.037284255027770996,-0.5602431893348694,-2.476801633834839,8.893261909484863
1713722599660012081,0.09693906456232071,-0.04261057823896408,-0.024501081556081772,1.2461819648742676,-0.6500257253646851,10.985794067382812
1713722599669012081,0.006391586735844612,0.029827404767274857,-0.013848437927663326,1.3335703611373901,-0.9564835429191589,11.390414237976074
1713722599679012081,-0.10120011866092682,0.0511326938867569,-0.03941478580236435,0.4704606235027313,-1.2928688526153564,13.178882598876953
1713722599688012081,0.00532632227987051,-0.023435818031430244,-0.05432848632335663,-2.1547815799713135,-3.6583402156829834,10.516530990600586
1713722599698012081,0.0788295716047287,-0.05326322093605995,0.03302319720387459,-1.4053963422775269,-3.6966474056243896,7.836222171783447
1713722599708012081,0.26205503940582275,-0.05326322093605995,-0.037284255027770996,1.1563993692398071,-0.93254154920578,7.489062786102295
1713722599717012081,0.19707392156124115,0.03195793181657791,-0.012783173471689224,1.1276689767837524,1.1097124814987183,8.53293514251709
1713722599727012081,0.1022653877735138,0.07350324839353561,-0.05965480953454971,0.5985504388809204,2.448071241378784,10.583568572998047
1713722599736012081,-0.07989483326673508,0.07776430249214172,-0.01065264455974102,-0.18076223134994507,1.8758569955825806,10.595539093017578
1713722599746012081,-0.23116238415241241,0.041545312851667404,-0.03302319720387459,-0.6799532771110535,0.6835445761680603,10.831368446350098
1713722599755012081,-0.1757686287164688,-0.06711165606975555,-0.02130528911948204,-1.9261351823806763,-2.2649147510528564,8.822632789611816
1713722599765012081,-0.07989483326673508,-0.12463594228029251,0.022370552644133568,-1.929726481437683,-3.6978445053100586,7.995436668395996
1713722599774012081,0.07350324839353561,-0.10120011866092682,0.002130528911948204,0.5063736438751221,-1.5909470319747925,9.576807022094727
1713722599784012081,0.06924218684434891,-0.007456851191818714,-0.019174760207533836,1.9512743949890137,-0.038307227194309235,11.55321979522705
1713722599794012081,0.02130528911948204,0.08202536404132843,-0.04687163606286049,1.5921441316604614,-0.4644751250743866,11.70166015625
1713722599804012081,-0.04367584362626076,0.1022653877735138,-0.03834952041506767,-0.24181437492370605,-1.6077064275741577,11.399991035461426
1713722599813012081,0.04048004746437073,0.002130528911948204,-0.0511326938867569,-2.2864625453948975,-3.180696964263916,9.502586364746094
1713722599823012081,0.10546118021011353,-0.044741105288267136,0.029827404767274857,-1.2665326595306396,-2.098517656326294,8.554482460021973
1713722599832012081,0.2034655064344406,-0.06178533658385277,-0.04048004746437073,0.6260837316513062,-0.011971008032560349,8.571242332458496
1713722599842012081,0.10865697264671326,-0.007456851191818714,-0.011717909015715122,0.8463503122329712,0.5590460896492004,8.684966087341309
1713722599851012081,-0.034088462591171265,0.02876213937997818,-0.037284255027770996,0.6751648783683777,1.3000514507293701,11.239580154418945
1713722599861012081,-0.16405072808265686,0.047936901450157166,-0.034088462591171265,0.24181437492370605,0.6320692300796509,10.995370864868164
1713722599870012081,-0.1672465205192566,-0.001065264455974102,-0.03941478580236435,-1.40180504322052,-1.7298107147216797,9.90481185913086
1713722599880012081,-0.049002163112163544,-0.08415588736534119,-0.012783173471689224,-2.2661118507385254,-3.509899616241455,8.461108207702637
1713722599890012081,0.09587380290031433,-0.08202536404132843,0.026631610468029976,0.14006079733371735,-1.7741034030914307,8.937554359436035
1713722599899012081,0.14700649678707123,-0.024501081556081772,-0.03834952041506767,1.8543092012405396,0.06703764945268631,10.652999877929688
1713722599909012081,0.06924218684434891,0.06924218684434891,-0.024501081556081772,1.314416766166687,-0.16400282084941864,10.8505220413208
1713722599918012081,-0.07350324839353561,0.11824434995651245,-0.037284255027770996,0.44651859998703003,-0.2885012924671173,11.552022933959961
1713722599928012081,-0.06604639440774918,0.03621898964047432,-0.05965480953454971,-1.7118542194366455,-2.005143880844116,10.449493408203125
1713722599937012081,0.011717909015715122,-0.05432848632335663,0.013848437927663326,-2.718616008758545,-3.338714122772217,8.061277389526367
1713722599947012081,0.14168016612529755,-0.08309062570333481,-0.004261057823896408,-0.4453215003013611,-1.136048674583435,8.339004516601562
1713722599957012081,0.16085493564605713,-0.049002163112163544,-0.014913702383637428,1.2904746532440186,0.9684545993804932,9.63067626953125
1713722599966012081,0.07350324839353561,0.01810949482023716,-0.037284255027770996,1.2186486721038818,1.0989385843276978,10.137049674987793
1713722599976012081,-0.08522115647792816,0.07243797928094864,-0.015978965908288956,0.7170634269714355,0.6823474764823914,11.155782699584961
1713722599985012081,-0.1896170675754547,0.06285060197114944,-0.04367584362626076,-0.1364694982767105,-0.4692635238170624,12.038045883178711
1713722599995012081,-0.07456851005554199,-0.044741105288267136,-0.022370552644133568,-2.5031378269195557,-3.816357374191284,9.155426979064941
1713722600005012081,0.012783173471689224,-0.09054747968912125,0.03621898964047432,-1.9333178997039795,-3.8343138694763184,7.8278422355651855
1713722600014012081,0.18748654425144196,-0.0884169489145279,-0.014913702383637428,0.9959878921508789,-0.8571242094039917,8.531737327575684
1713722600024012081,0.11291802674531937,0.008522115647792816,-0.009587380103766918,1.6376339197158813,0.7805097699165344,10.128669738769531
1713722600034012081,0.007456851191818714,0.08522115647792816,-0.04367584362626076,1.2449848651885986,1.4077905416488647,12.263100624084473
1713722600043012081,-0.13741911947727203,0.11078750342130661,-0.02876213937997818,0.1304839849472046,0.11851298063993454,11.652579307556152
1713722600052012081,-0.09800432622432709,-0.019174760207533836,-0.05326322093605995,-2.2146365642547607,-2.8610708713531494,9.606734275817871
1713722600062012081,-0.003195793367922306,-0.08948221057653427,0.030892668291926384,-2.451662540435791,-3.70742130279541,7.574057102203369
1713722600072012081,0.16831177473068237,-0.10865697264671326,-0.017044231295585632,0.2669534981250763,-0.9493009448051453,8.225279808044434
1713722600081012081,0.1533980816602707,-0.03941478580236435,-0.020240023732185364,1.5406687259674072,1.194706678390503,10.004171371459961
1713722600091012081,0.07243797928094864,0.03621898964047432,-0.047936901450157166,1.2761094570159912,1.400607943534851,10.652999877929688
1713722600101012081,-0.09054747968912125,0.08628641813993454,-0.017044231295585632,0.5518634915351868,0.7218518257141113,11.012130737304688
1713722600110012081,-0.1757686287164688,0.07989483326673508,-0.030892668291926384,-0.17956513166427612,-0.40222588181495667,11.329361915588379
1713722600120012081,-0.07669904083013535,-0.020240023732185364,-0.030892668291926384,-2.3762452602386475,-3.400963544845581,8.288725852966309
1713722600129012081,0.001065264455974102,-0.07030745595693588,0.03621898964047432,-2.1487960815429688,-3.377021551132202,8.075642585754395
1713722600139012081,0.13848437368869781,-0.09054747968912125,-0.013848437927663326,0.4836287498474121,-0.6775590777397156,9.278728485107422
1713722600148012081,0.052197955548763275,-0.009587380103766918,0.001065264455974102,1.2342109680175781,0.6847416758537292,10.872069358825684
1713722600158012081,-0.04048004746437073,0.05752427875995636,-0.027696875855326653,1.1097124814987183,0.7685387134552002,12.391190528869629
1713722600167012081,-0.13102751970291138,0.06604639440774918,-0.01810949482023716,-0.2669534981250763,-0.8846575021743774,12.021286964416504
1713722600177012081,-0.02130528911948204,-0.04687163606286049,-0.030892668291926384,-2.5761609077453613,-3.737348794937134,9.352949142456055
1713722600187012081,0.07776430249214172,-0.08202536404132843,0.05006742849946022,-1.625662922859192,-3.0095114707946777,7.554903507232666
1713722600197012081,0.23755396902561188,-0.0884169489145279,-0.02130528911948204,1.0342950820922852,-0.30526071786880493,8.14148235321045
1713722600206012081,0.15233281254768372,-0.01065264455974102,-0.014913702383637428,1.3299790620803833,0.6129156351089478,9.260771751403809
1713722600216012081,0.022370552644133568,0.041545312851667404,-0.015978965908288956,0.8583213090896606,1.5298948287963867,11.640608787536621
1713722600225012081,-0.1395496428012848,0.06391586363315582,-0.004261057823896408,0.36152446269989014,1.0522515773773193,10.983400344848633
1713722600235012081,-0.23116238415241241,0.05965480953454971,0.007456851191818714,-0.035913024097681046,-0.2801215946674347,10.417171478271484
1713722600244012081,-0.09587380290031433,-0.03621898964047432,-0.02876213937997818,-2.165555477142334,-3.250128746032715,8.133103370666504
1713722600254012081,0.009587380103766918,-0.058589544147253036,0.05965480953454971,-1.8590975999832153,-3.2573113441467285,8.149862289428711
1713722600264012081,0.15552860498428345,-0.07456851005554199,-0.015978965908288956,0.7374141216278076,-0.7026981711387634,9.557653427124023
1713722600273012081,0.05645901337265968,0.006391586735844612,0.012783173471689224,1.2701239585876465,0.45010989904403687,11.202469825744629
1713722600283012081,-0.04580637067556381,0.058589544147253036,-0.029827404767274857,1.1192892789840698,0.6643909811973572,12.743138313293457
1713722600292012081,-0.11185276508331299,0.058589544147253036,-0.01065264455974102,-0.2968810200691223,-0.9983820915222168,11.209651947021484
1713722600301012081,-0.014913702383637428,-0.037284255027770996,-0.02556634694337845,-2.255337953567505,-3.3913867473602295,8.283937454223633
1713722600311012081,0.09054747968912125,-0.05432848632335663,0.04687163606286049,-1.338358759880066,-2.3295581340789795,7.6949639320373535
1713722600321012081,0.19813919067382812,-0.055393751710653305,-0.012783173471689224,0.6967126727104187,0.1173158809542656,8.953117370605469
1713722600330012081,0.10333064943552017,0.015978965908288956,0.011717909015715122,0.8750807046890259,0.8092401623725891,9.996989250183105
1713722600340012081,-0.049002163112163544,0.06178533658385277,0.007456851191818714,0.3998316824436188,1.3060369491577148,12.056002616882324
1713722600350012081,-0.17257283627986908,0.0649811327457428,0.011717909015715122,-0.3734954595565796,0.24181437492370605,11.546037673950195
1713722600360012081,-0.11078750342130661,-0.03834952041506767,0.020240023732185364,-2.319981336593628,-2.937685489654541,8.595184326171875
1713722600369012081,-0.02130528911948204,-0.09374327212572098,0.07350324839353561,-2.256535053253174,-3.468001127243042,7.317877292633057
1713722600378012081,0.14274543523788452,-0.09800432622432709,0.04367584362626076,0.17836801707744598,-0.6871358752250671,8.638279914855957
1713722600388012081,0.09374327212572098,-0.017044231295585632,0.041545312851667404,1.2054805755615234,1.0247182846069336,11.014524459838867
1713722600397012081,0.009587380103766918,0.06072007119655609,0.023435818031430244,1.0534486770629883,0.9050082564353943,12.000935554504395
1713722600407012081,-0.12676647305488586,0.08415588736534119,0.037284255027770996,0.24061726033687592,-0.40462008118629456,11.702857971191406
1713722600417012081,-0.05965480953454971,-0.034088462591171265,0.015978965908288956,-2.1535844802856445,-3.286041736602783,9.57201862335205
1713722600426012081,0.020240023732185364,-0.092678003013134,0.10546118021011353,-2.0817582607269287,-3.846284866333008,7.711723327636719
1713722600436012081,0.19174760580062866,-0.10333064943552017,0.052197955548763275,0.4728548228740692,-1.0115501880645752,8.299500465393066
1713722600445012081,0.15978966653347015,-0.008522115647792816,0.055393751710653305,1.1085153818130493,1.072602391242981,9.63187313079834
1713722600455012081,0.06604639440774918,0.06817692518234253,0.04048004746437073,0.9026139974594116,1.8375498056411743,11.410764694213867
1713722600464012081,-0.09480853378772736,0.09693906456232071,0.06285060197114944,0.33758243918418884,1.035492181777954,11.203666687011719
1713722600474012081,-0.20772656798362732,0.05006742849946022,0.05752427875995636,-0.6667851805686951,-0.5123591423034668,11.297040939331055
1713722600484012081,-0.09693906456232071,-0.07776430249214172,0.05752427875995636,-2.8538882732391357,-3.773261785507202,8.785523414611816
1713722600493012081,0.003195793367922306,-0.11078750342130661,0.12889699637889862,-1.8327614068984985,-3.79840087890625,7.964311599731445
1713722600503012081,0.16298545897006989,-0.1022653877735138,0.058589544147253036,1.1049240827560425,-1.0510544776916504,9.169792175292969
1713722600513012081,0.08948221057653427,0.01065264455974102,0.08309062570333481,1.7178397178649902,0.3208230137825012,10.885237693786621
1713722600522012081,0.011717909015715122,0.08735168725252151,0.04580637067556381,1.425747036933899,0.7230489253997803,11.978191375732422
1713722600532012081,-0.07989483326673508,0.10865697264671326,0.05752427875995636,0.29448679089546204,-0.2932896912097931,10.438718795776367
1713722600541012081,-0.02876213937997818,0.009587380103766918,0.041545312851667404,-1.9800047874450684,-2.227804660797119,8.665812492370605
1713722600551012081,0.026631610468029976,-0.04687163606286049,0.10120011866092682,-2.142810583114624,-2.1104886531829834,8.224082946777344
1713722600560012081,0.13102751970291138,-0.08202536404132843,0.06711165606975555,-0.18076223134994507,-0.15682020783424377,8.845377922058105
1713722600570012081,0.07030745595693588,-0.041545312851667404,0.0788295716047287,0.6440402269363403,0.894234299659729,9.712079048156738
1713722600579012081,-0.015978965908288956,0.012783173471689224,0.07137271761894226,0.9038110971450806,1.2042834758758545,10.961852073669434
1713722600589012081,-0.12889699637889862,0.05645901337265968,0.06924218684434891,0.669179379940033,0.3998316824436188,10.662576675415039
1713722600599012081,-0.1395496428012848,0.027696875855326653,0.06604639440774918,-0.9636661410331726,-1.3970166444778442,10.556035041809082
1713722600608012081,-0.03621898964047432,-0.055393751710653305,0.07776430249214172,-2.3810336589813232,-3.513490915298462,9.159018516540527
1713722600618012081,0.06285060197114944,-0.07243797928094864,0.12463594228029251,-0.5614402890205383,-2.388216257095337,9.558850288391113
1713722600628012081,0.13635385036468506,-0.05326322093605995,0.06285060197114944,1.3658920526504517,-0.5710170865058899,10.398017883300781
1713722600637012081,0.06178533658385277,0.026631610468029976,0.07989483326673508,1.423352837562561,-0.5099649429321289,10.248380661010742
1713722600646012081,-0.03515372797846794,0.07669904083013535,0.05432848632335663,0.8810662031173706,-0.12330138683319092,10.994174003601074
1713722600656012081,-0.049002163112163544,0.06924218684434891,0.049002163112163544,-0.788889467716217,-0.7218518257141113,10.169371604919434
1713722600666012081,0.009587380103766918,-0.00532632227987051,0.06178533658385277,-2.1727380752563477,-2.1535844802856445,8.394070625305176
1713722600676012081,0.06604639440774918,-0.052197955548763275,0.08628641813993454,-1.058237075805664,-1.3491326570510864,8.87410831451416
1713722600685012081,0.10120011866092682,-0.07456851005554199,0.05965480953454971,0.5315127968788147,0.1628057062625885,9.627084732055664
1713722600694012081,0.03195793181657791,-0.04687163606286049,0.06072007119655609,0.894234299659729,0.33997663855552673,9.643844604492188
1713722600704012081,-0.0649811327457428,-0.004261057823896408,0.049002163112163544,1.0091559886932373,0.3842693567276001,10.645817756652832
1713722600713012081,-0.12676647305488586,0.029827404767274857,0.030892668291926384,0.8798691034317017,-0.25258827209472656,10.371681213378906
1713722600723012081,-0.07563377171754837,0.003195793367922306,0.022370552644133568,-0.25258827209472656,-2.1727380752563477,9.739612579345703
1713722600733012081,-0.006391586735844612,-0.03515372797846794,0.04261057823896408,-1.0127472877502441,-3.0633809566497803,9.605537414550781
1713722600743012081,0.07989483326673508,-0.055393751710653305,0.04580637067556381,0.34356793761253357,-1.3898340463638306,10.155006408691406
1713722600752012081,0.092678003013134,-0.01810949482023716,0.017044231295585632,1.599326729774475,-0.16160860657691956,10.623072624206543
1713722600762012081,0.049002163112163544,0.052197955548763275,0.001065264455974102,1.4413094520568848,-0.3423708379268646,9.952695846557617
1713722600771012081,-0.015978965908288956,0.09800432622432709,-0.006391586735844612,0.7230489253997803,-0.3902548849582672,9.704895973205566
1713722600781012081,-0.012783173471689224,0.06604639440774918,-0.026631610468029976,-0.7003039717674255,-0.8236053586006165,9.660603523254395
1713722600790012081,0.01065264455974102,-0.001065264455974102,0.003195793367922306,-1.5263035297393799,-1.3718775510787964,9.29069995880127
1713722600800012081,0.03834952041506767,-0.05645901337265968,0.004261057823896408,-0.6835445761680603,-0.6835445761680603,9.563638687133789
1713722600809012081,0.02876213937997818,-0.05965480953454971,0.004261057823896408,0.2561795711517334,0.02992752008140087,9.894038200378418
1713722600820012081,-0.009587380103766918,-0.020240023732185364,-0.007456851191818714,0.6584054827690125,-0.05985504016280174,9.771934509277344
1713722600829012081,-0.05965480953454971,0.03515372797846794,-0.008522115647792816,0.790086567401886,-0.26575639843940735,9.915586471557617
1713722600838012081,-0.07456851005554199,0.06285060197114944,-0.017044231295585632,0.32202011346817017,-0.7170634269714355,10.612298965454102
1713722600848012081,-0.007456851191818714,0.029827404767274857,-0.01810949482023716,-1.4197615385055542,-2.2397756576538086,10.123881340026855
1713722600857012081,0.019174760207533836,-0.009587380103766918,0.020240023732185364,-1.646013617515564,-2.52109432220459,9.873687744140625
1713722600867012081,0.06285060197114944,-0.04048004746437073,0.003195793367922306,0.033518824726343155,-1.1288660764694214,10.473435401916504
1713722600876012081,0.02876213937997818,-0.022370552644133568,-0.001065264455974102,0.7050923705101013,-0.3770867586135864,10.60272216796875
1713722600886012081,0.012783173471689224,0.007456851191818714,-0.01810949482023716,0.651222825050354,-0.4297592043876648,9.900023460388184
1713722600896012081,0.004261057823896408,0.03621898964047432,-0.011717909015715122,0.40222588181495667,-0.7015010714530945,8.825027465820312
1713722600906012081,0.014913702383637428,0.04580637067556381,-0.026631610468029976,-0.06224924325942993,-0.5099649429321289,9.065644264221191
1713722600915012081,0.02556634694337845,0.03834952041506767,-0.01810949482023716,-0.5255272388458252,-0.22625206410884857,9.593565940856934
1713722600925012081,0.006391586735844612,0.002130528911948204,-0.013848437927663326,-0.7769184112548828,-0.12210428714752197,9.861716270446777
1713722600934012081,-0.02876213937997818,-0.03515372797846794,-0.00532632227987051,-0.7314286231994629,-0.18315643072128296,9.895235061645508
1713722600943012081,-0.05645901337265968,-0.05326322093605995,-0.007456851191818714,-0.22625206410884857,-0.4357447028160095,9.910798072814941
1713722600953012081,-0.06178533658385277,-0.04580637067556381,-0.008522115647792816,0.3232172131538391,-0.8367734551429749,10.123881340026855
1713722600963012081,-0.030892668291926384,-0.017044231295585632,-0.01065264455974102,0.31603461503982544,-1.4053963422775269,10.02571964263916
1713722600973012081,0.011717909015715122,0.02130528911948204,-0.012783173471689224,0.1759738177061081,-1.698686122894287,9.890446662902832
1713722600982012081,0.03621898964047432,0.044741105288267136,-0.01065264455974102,0.0347159244120121,-1.2653355598449707,10.23880386352539
1713722600991012081,0.04048004746437073,0.037284255027770996,-0.020240023732185364,-0.5710170865058899,-0.9768342971801758,10.664971351623535
1713722601001012081,0.030892668291926384,-0.004261057823896408,-0.014913702383637428,-0.9660603404045105,-1.1683703660964966,10.412383079528809
1713722601011012081,0.011717909015715122,-0.047936901450157166,0.004261057823896408,-0.45250412821769714,-0.8655039072036743,10.013748168945312
1713722601020012081,0.020240023732185364,-0.052197955548763275,-0.007456851191818714,0.38307225704193115,-0.5315127968788147,9.242815971374512
1713722601030012081,0.023435818031430244,-0.008522115647792816,-0.00532632227987051,0.7984662652015686,-0.4644751250743866,8.71728801727295
1713722601039012081,0.01810949482023716,0.041545312851667404,-0.019174760207533836,0.6739677786827087,-0.1496376097202301,9.45111083984375
1713722601049012081,-0.004261057823896408,0.06604639440774918,-0.017044231295585632,0.07781155407428741,0.0035913025494664907,9.913191795349121
1713722601058012081,-0.03621898964047432,0.049002163112163544,-0.017044231295585632,-0.7062894701957703,-0.19033902883529663,10.204087257385254
1713722601069012081,-0.03195793181657791,-0.011717909015715122,-0.015978965908288956,-1.602918028831482,-0.9373299479484558,9.9371337890625
1713722601078012081,-0.04367584362626076,-0.06391586363315582,0.009587380103766918,-1.1707645654678345,-1.1492167711257935,9.709684371948242
1713722601087012081,-0.020240023732185364,-0.07776430249214172,-0.00532632227987051,0.2454056739807129,-0.772130012512207,9.786299705505371
1713722601097012081,-0.023435818031430244,-0.029827404767274857,-0.001065264455974102,0.9361328482627869,-0.7374141216278076,9.86889934539795
1713722601107012081,-0.027696875855326653,0.03621898964047432,-0.012783173471689224,0.9564835429191589,-0.7685387134552002,10.441113471984863
1713722601116012081,0.004261057823896408,0.055393751710653305,-0.027696875855326653,-0.11013327538967133,-1.6400281190872192,10.739192008972168
1713722601126012081,0.03302319720387459,0.009587380103766918,-0.011717909015715122,-1.216254472732544,-2.5258827209472656,10.418368339538574
1713722601136012081,0.05752427875995636,-0.03941478580236435,0.008522115647792816,-0.5398924946784973,-1.4401123523712158,10.26513957977295
1713722601145012081,0.09054747968912125,-0.041545312851667404,-0.019174760207533836,0.6727706789970398,-0.28131869435310364,9.470264434814453
1713722601155012081,0.07563377171754837,0.003195793367922306,-0.024501081556081772,0.9816226959228516,-0.1173158809542656,8.481459617614746
1713722601164012081,0.030892668291926384,0.049002163112163544,-0.03941478580236435,0.7649474143981934,0.40462008118629456,9.244012832641602
1713722601174012081,-0.022370552644133568,0.058589544147253036,-0.049002163112163544,0.16879121959209442,0.652419924736023,9.685742378234863
1713722601183012081,-0.08202536404132843,0.03515372797846794,-0.04687163606286049,-0.4345476031303406,0.33039984107017517,9.487024307250977
1713722601193012081,-0.11717908829450607,-0.011717909015715122,-0.05432848632335663,-0.7338228225708008,-0.26575639843940735,9.983820915222168
1713722601202012081,-0.09906959533691406,-0.06711165606975555,-0.04580637067556381,-0.8475474119186401,-1.338358759880066,10.031704902648926
1713722601213012081,-0.07669904083013535,-0.07456851005554199,-0.030892668291926384,0.0933738648891449,-1.7417817115783691,10.121487617492676
1713722601221012081,-0.023435818031430244,-0.027696875855326653,-0.04261057823896408,1.359906554222107,-1.482010841369629,10.223240852355957
1713722601231012081,-0.001065264455974102,0.05006742849946022,-0.05432848632335663,1.1216834783554077,-1.4460978507995605,10.451887130737305
1713722601241012081,0.05645901337265968,0.07563377171754837,-0.07456851005554199,-0.25019407272338867,-1.9189525842666626,10.66137981414795
1713722601250012081,0.07243797928094864,0.052197955548763275,-0.04687163606286049,-0.8547300100326538,-1.8195933103561401,10.204087257385254
1713722601260012081,0.08948221057653427,0.004261057823896408,-0.052197955548763275,-0.5351040959358215,-0.6584054827690125,9.66299819946289
1713722601269012081,0.05752427875995636,-0.014913702383637428,-0.05645901337265968,-0.4118026793003082,0.23582886159420013,9.11352825164795
1713722601279012081,0.02130528911948204,-0.023435818031430244,-0.06178533658385277,-0.29209259152412415,0.5829880833625793,8.943540573120117
1713722601288012081,-0.04048004746437073,-0.014913702383637428,-0.05752427875995636,-0.05985504016280174,0.5183446407318115,9.23323917388916
1713722601299012081,-0.09480853378772736,-0.004261057823896408,-0.06604639440774918,0.15083470940589905,0.3124433159828186,9.622296333312988
1713722601308012081,-0.12144014239311218,0.003195793367922306,-0.05752427875995636,0.1711854189634323,-0.15682020783424377,9.479841232299805
1713722601317012081,-0.1065264418721199,-0.007456851191818714,-0.06604639440774918,-0.2454056739807129,-1.0905588865280151,9.747992515563965
1713722601327012081,-0.06924218684434891,-0.03302319720387459,-0.047936901450157166,-0.5446808934211731,-1.930923581123352,10.51413631439209
1713722601336012081,-0.034088462591171265,-0.02876213937997818,-0.03621898964047432,0.16879121959209442,-1.6388310194015503,11.105504035949707
1713722601346012081,0.002130528911948204,0.014913702383637428,-0.052197955548763275,0.7984662652015686,-1.3192051649093628,10.814608573913574
1713722601356012081,0.030892668291926384,0.052197955548763275,-0.06711165606975555,0.1173158809542656,-1.723825216293335,9.679757118225098
1713722601366012081,0.044741105288267136,0.04687163606286049,-0.06072007119655609,-0.5770025849342346,-1.43532395362854,9.255983352661133
1713722601375012081,0.05326322093605995,0.013848437927663326,-0.0649811327457428,-0.5374982953071594,-0.5039794445037842,9.66419506072998
1713722601384012081,0.01065264455974102,-0.017044231295585632,-0.06711165606975555,-0.4189852774143219,0.1149216815829277,10.144232749938965
1713722601394012081,-0.027696875855326653,-0.03515372797846794,-0.0649811327457428,-0.27054479718208313,0.06584054231643677,9.749189376831055
1713722601403012081,-0.06391586363315582,-0.030892668291926384,-0.06285060197114944,0.021547814831137657,-0.2885012924671173,9.20091724395752
1713722601413012081,-0.07137271761894226,-0.014913702383637428,-0.06711165606975555,0.3016694188117981,-0.4357447028160095,9.369708061218262
1713722601422012081,-0.05965480953454971,0.007456851191818714,-0.06711165606975555,0.35673603415489197,-0.5614402890205383,9.402029991149902
1713722601432012081,-0.04687163606286049,0.01810949482023716,-0.07456851005554199,0.13168108463287354,-0.790086567401886,9.765948295593262
1713722601442012081,-0.041545312851667404,0.00532632227987051,-0.07456851005554199,-0.295683890581131,-1.1121066808700562,10.45667552947998
1713722601451012081,-0.041545312851667404,-0.019174760207533836,-0.0649811327457428,-0.47165772318840027,-1.4113818407058716,10.886434555053711
1713722601462012081,-0.03302319720387459,-0.029827404767274857,-0.05432848632335663,-0.21428105235099792,-1.547851324081421,10.63863468170166
1713722601470012081,-0.006391586735844612,-0.009587380103766918,-0.06178533658385277,0.0802057534456253,-1.4951789379119873,9.891644477844238
1713722601480012081,0.022370552644133568,0.020240023732185364,-0.06711165606975555,0.27413609623908997,-1.1121066808700562,9.36013126373291
1713722601490012081,0.03621898964047432,0.030892668291926384,-0.07350324839353561,0.11851298063993454,-0.6200982332229614,9.493009567260742
1713722601499012081,0.006391586735844612,0.029827404767274857,-0.07563377171754837,-0.27892449498176575,-0.3543418347835541,10.114304542541504
1713722601509012081,-0.03834952041506767,0.003195793367922306,-0.07669904083013535,-0.4944026470184326,-0.3902548849582672,10.579977035522461
1713722601519012081,-0.047936901450157166,-0.037284255027770996,-0.06604639440774918,-0.7422025203704834,-0.9648632407188416,9.8784761428833
1713722601528012081,-0.04048004746437073,-0.044741105288267136,-0.05326322093605995,-0.2753331959247589,-1.2042834758758545,9.084797859191895
1713722601538012081,0.0,-0.024501081556081772,-0.06604639440774918,0.5925649404525757,-0.834379255771637,8.883685111999512
1713722601547012081,0.006391586735844612,0.007456851191818714,-0.07030745595693588,0.712274968624115,-0.35314473509788513,9.289502143859863
1713722601557012081,-0.01065264455974102,0.029827404767274857,-0.07776430249214172,0.355538934469223,-0.004788403399288654,10.104727745056152
1713722601566012081,-0.06817692518234253,0.03621898964047432,-0.08096009492874146,-0.05506663769483566,-0.16759411990642548,10.702081680297852
1713722601576012081,-0.09693906456232071,-0.004261057823896408,-0.08522115647792816,-0.8750807046890259,-1.1540051698684692,11.276689529418945
1713722601585012081,-0.058589544147253036,-0.0649811327457428,-0.0649811327457428,-1.5358803272247314,-2.5510218143463135,10.273519515991211
1713722601596012081,-0.003195793367922306,-0.07030745595693588,-0.04367584362626076,-0.25737667083740234,-1.9788076877593994,9.434351921081543
1713722601605012081,0.07776430249214172,-0.037284255027770996,-0.07989483326673508,1.301248550415039,-0.849941611289978,8.866926193237305
1713722601614012081,0.052197955548763275,0.03621898964047432,-0.07350324839353561,1.3419500589370728,-0.477643221616745,9.229647636413574
1713722601624012081,-0.011717909015715122,0.09587380290031433,-0.09587380290031433,0.651222825050354,0.07900865375995636,10.868478775024414
1713722601633012081,-0.07563377171754837,0.08628641813993454,-0.09161274135112762,-0.48482584953308105,-0.29807811975479126,11.626243591308594
1713722601643012081,-0.041545312851667404,-0.013848437927663326,-0.08202536404132843,-2.321178436279297,-2.1068973541259766,9.786299705505371
1713722601653012081,-0.02130528911948204,-0.07989483326673508,-0.03941478580236435,-1.764526605606079,-2.100911855697632,8.38569164276123
1713722601662012081,0.06817692518234253,-0.10439591109752655,-0.07243797928094864,0.6607996821403503,-0.5817909836769104,8.328230857849121
1713722601672012081,0.027696875855326653,-0.049002163112163544,-0.07350324839353561,1.5897499322891235,0.2609679698944092,9.151835441589355
1713722601682012081,-0.04048004746437073,0.030892668291926384,-0.09161274135112762,1.5538368225097656,0.7218518257141113,11.112687110900879
1713722601691012081,-0.14061491191387177,0.09693906456232071,-0.09374327212572098,0.9002197980880737,-0.02274491637945175,11.378443717956543
1713722601701012081,-0.10546118021011353,0.041545312851667404,-0.1022653877735138,-1.235408067703247,-2.52109432220459,10.69489860534668
1713722601710012081,-0.017044231295585632,-0.03834952041506767,-0.052197955548763275,-2.5450363159179688,-3.9588124752044678,8.822632789611816
1713722601720012081,0.12676647305488586,-0.07669904083013535,-0.04367584362626076,-0.3363853394985199,-1.3982137441635132,8.777143478393555
1713722601729012081,0.14594122767448425,-0.05326322093605995,-0.08628641813993454,1.5957354307174683,0.8870517015457153,9.864110946655273
1713722601739012081,0.06604639440774918,0.026631610468029976,-0.1022653877735138,1.404199242591858,0.8798691034317017,9.825803756713867
1713722601748012081,-0.08415588736534119,0.08309062570333481,-0.09693906456232071,0.6859387755393982,0.591367781162262,10.734403610229492
1713722601759012081,-0.18429075181484222,0.08948221057653427,-0.1022653877735138,0.023942016065120697,0.0454898327589035,10.488997459411621
1713722601768012081,-0.15978966653347015,0.020240023732185364,-0.09587380290031433,-1.4915876388549805,-1.9153612852096558,8.790311813354492
1713722601777012081,-0.06604639440774918,-0.05326322093605995,-0.07563377171754837,-2.033874273300171,-2.8826189041137695,8.086416244506836
1713722601787012081,0.05432848632335663,-0.08202536404132843,-0.06178533658385277,-0.14484919607639313,-1.0235211849212646,9.039308547973633
1713722601796012081,0.03621898964047432,-0.04687163606286049,-0.092678003013134,1.2054805755615234,0.49320554733276367,11.140220642089844
1713722601806012081,-0.049002163112163544,0.02876213937997818,-0.10013485699892044,1.313219666481018,0.10055647045373917,11.907562255859375
1713722601815012081,-0.16831177473068237,0.0884169489145279,-0.08948221057653427,0.8798691034317017,-1.0474631786346436,12.164938926696777
1713722601826012081,-0.07030745595693588,0.015978965908288956,-0.12357067316770554,-1.944091796875,-4.138377666473389,9.914388656616211
1713722601835012081,0.03195793181657791,-0.034088462591171265,-0.024501081556081772,-2.5450363159179688,-4.739322185516357,7.86854362487793
1713722601844012081,0.2173139452934265,-0.07776430249214172,-0.07669904083013535,0.1388636976480484,-1.256955862045288,8.379705429077148
1713722601854012081,0.17363810539245605,-0.034088462591171265,-0.07456851005554199,1.0893617868423462,1.4389152526855469,9.624691009521484
1713722601863012081,0.07030745595693588,0.01810949482023716,-0.1022653877735138,0.9564835429191589,2.22660756111145,10.712855339050293
1713722601873012081,-0.10546118021011353,0.06178533658385277,-0.07137271761894226,0.629675030708313,1.4508862495422363,10.615890502929688
1713722601882012081,-0.23755396902561188,0.07137271761894226,-0.07776430249214172,0.40701428055763245,0.5374982953071594,10.080785751342773
1713722601892012081,-0.23116238415241241,0.05645901337265968,-0.08096009492874146,-1.2114660739898682,-1.0079588890075684,9.130288124084473
1713722601902012081,-0.09054747968912125,-0.027696875855326653,-0.09161274135112762,-2.6348190307617188,-3.2609026432037354,7.7165117263793945
1713722601912012081,0.008522115647792816,-0.06285060197114944,-0.029827404767274857,-0.8798691034317017,-2.3953988552093506,9.230844497680664
1713722601921012081,0.041545312851667404,-0.06817692518234253,-0.08415588736534119,1.0905588865280151,-0.4692635238170624,11.987768173217773
1713722601930012081,-0.06178533658385277,0.007456851191818714,-0.05965480953454971,1.358709454536438,-1.0019733905792236,11.933897972106934
1713722601939418107,-0.13635385036468506,0.05432848632335663,-0.07563377171754837,0.038307227194309235,-1.7357962131500244,12.454636573791504
1713722601949418107,0.00532632227987051,-0.002130528911948204,-0.08628641813993454,-2.318784236907959,-3.9636008739471436,9.32421875
1713722601958418107,0.10439591109752655,-0.024501081556081772,0.004261057823896408,-1.0079588890075684,-3.0190882682800293,7.864952564239502
1713722601968418107,0.27164241671562195,-0.06072007119655609,-0.08415588736534119,1.3000514507293701,-0.12210428714752197,8.11754035949707
1713722601977418107,0.15978966653347015,-0.006391586735844612,-0.04367584362626076,1.0283095836639404,0.933738648891449,8.949525833129883
1713722601988418107,0.014913702383637428,0.02876213937997818,-0.09054747968912125,0.5219359397888184,1.929726481437683,11.316194534301758
1713722601997418107,-0.17896442115306854,0.05432848632335663,-0.04367584362626076,0.29448679089546204,1.436521053314209,10.471040725708008
1713722602006418107,-0.30786141753196716,0.058589544147253036,-0.06072007119655609,0.2968810200691223,0.4884171485900879,9.556455612182617
1713722602016418107,-0.2173139452934265,0.004261057823896408,-0.07776430249214172,-1.01753568649292,-1.8997989892959595,7.940369606018066
1713722602025418107,-0.09693906456232071,-0.041545312851667404,-0.037284255027770996,-1.6484078168869019,-3.3004069328308105,8.074444770812988
1713722602035418107,0.047936901450157166,-0.04261057823896408,-0.04367584362626076,0.090979665517807,-1.43532395362854,10.441113471984863
1713722602044418107,0.011717909015715122,0.022370552644133568,-0.052197955548763275,1.1623848676681519,-0.0347159244120121,12.633005142211914
1713722602054418107,-0.05326322093605995,0.092678003013134,-0.06072007119655609,0.6859387755393982,-0.9241618514060974,12.033257484436035
1713722602064418107,-0.04048004746437073,0.0649811327457428,-0.055393751710653305,-1.137245774269104,-3.1435868740081787,9.719261169433594
1713722602073418107,0.04048004746437073,0.002130528911948204,-0.024501081556081772,-2.296039342880249,-3.5865139961242676,8.123526573181152
1713722602083418107,0.15446333587169647,-0.05006742849946022,0.004261057823896408,-1.0295066833496094,-0.7876923680305481,8.3306245803833
1713722602093418107,0.14700649678707123,-0.04580637067556381,-0.03302319720387459,0.39863458275794983,1.5550339221954346,9.696516990661621
1713722602102418107,0.03621898964047432,0.012783173471689224,-0.02556634694337845,0.6667851805686951,1.6101006269454956,10.089165687561035
1713722602112418107,-0.15126754343509674,0.05965480953454971,-0.01810949482023716,0.325611412525177,0.9816226959228516,11.250353813171387
1713722602121418107,-0.25672873854637146,0.06072007119655609,-0.013848437927663326,-0.12689268589019775,-0.5542576909065247,11.684901237487793
1713722602131418107,-0.1438107043504715,-0.049002163112163544,-0.017044231295585632,-2.5474305152893066,-4.4723687171936035,8.738836288452148
1713722602140418107,-0.030892668291926384,-0.08948221057653427,0.06285060197114944,-2.383427858352661,-4.655525207519531,7.905653953552246
1713722602150418107,0.16831177473068237,-0.09374327212572098,0.011717909015715122,0.5973533391952515,-1.2078747749328613,8.889670372009277
1713722602160418107,0.1065264418721199,0.00532632227987051,0.012783173471689224,1.3479355573654175,0.8200140595436096,10.629057884216309
1713722602169418107,0.011717909015715122,0.08096009492874146,-0.003195793367922306,1.2006921768188477,1.3634978532791138,11.935094833374023
1713722602179418107,-0.14487595856189728,0.11717908829450607,0.019174760207533836,0.49559974670410156,0.40940847992897034,10.632649421691895
1713722602188418107,-0.16618125140666962,0.0511326938867569,-0.01065264455974102,-1.7573440074920654,-1.403002142906189,10.3333740234375
1713722602198418107,-0.05006742849946022,-0.05006742849946022,0.03515372797846794,-3.0418331623077393,-3.3195605278015137,7.832630634307861
1713722602207418107,0.06924218684434891,-0.08522115647792816,0.055393751710653305,-0.5638344883918762,-1.788468599319458,8.022970199584961
1713722602217418107,0.11291802674531937,-0.06817692518234253,0.013848437927663326,1.456871747970581,0.17717091739177704,10.08437728881836
1713722602227418107,0.004261057823896408,0.012783173471689224,0.01065264455974102,1.4149731397628784,0.15083470940589905,10.885237693786621
1713722602237418107,-0.14168016612529755,0.06924218684434891,0.01810949482023716,1.071405291557312,-0.11013327538967133,12.172121047973633
1713722602246418107,-0.1672465205192566,0.037284255027770996,-0.01810949482023716,-1.0055646896362305,-1.9009960889816284,11.26950740814209
1713722602255418107,-0.03621898964047432,-0.05645901337265968,0.022370552644133568,-2.7234044075012207,-4.424484729766846,8.178592681884766
1713722602265418107,0.09374327212572098,-0.07669904083013535,0.06178533658385277,-0.3495534360408783,-2.736572504043579,8.482656478881836
1713722602275418107,0.2034655064344406,-0.044741105288267136,0.001065264455974102,1.7357962131500244,-0.05386953800916672,9.628281593322754
1713722602284418107,0.1022653877735138,0.049002163112163544,0.011717909015715122,1.37906014919281,0.2561795711517334,9.785101890563965
1713722602294418107,-0.04687163606286049,0.10120011866092682,0.009587380103766918,0.7230489253997803,0.5889735817909241,11.555614471435547
1713722602304418107,-0.16831177473068237,0.1022653877735138,0.009587380103766918,-0.2298433631658554,-0.09935937076807022,11.227608680725098
1713722602313418107,-0.10333064943552017,0.002130528911948204,0.009587380103766918,-2.073378562927246,-2.8359317779541016,8.695740699768066
1713722602322418107,-0.019174760207533836,-0.05432848632335663,0.06604639440774918,-2.007538080215454,-3.271676540374756,7.654262542724609
1713722602332418107,0.1395496428012848,-0.06391586363315582,0.04580637067556381,0.1364694982767105,-0.7182605266571045,8.56765079498291
1713722602342418107,0.07563377171754837,0.009587380103766918,0.03941478580236435,1.07379949092865,0.9445125460624695,10.787075996398926
1713722602351418107,-0.015978965908288956,0.06924218684434891,0.01065264455974102,1.114500880241394,0.7876923680305481,12.00452709197998
1713722602361418107,-0.15872439742088318,0.07243797928094864,0.017044231295585632,0.5506663918495178,-0.788889467716217,11.863268852233887
1713722602370418107,-0.07137271761894226,-0.04687163606286049,-0.026631610468029976,-2.036268472671509,-4.045003890991211,9.907206535339355
1713722602381418107,0.024501081556081772,-0.09374327212572098,0.0649811327457428,-1.7860743999481201,-4.559757232666016,8.090007781982422
1713722602390418107,0.21624867618083954,-0.09480853378772736,-0.013848437927663326,1.1516109704971313,-1.5155296325683594,8.365340232849121
1713722602399418107,0.1949433982372284,0.003195793367922306,-0.019174760207533836,1.6400281190872192,0.5710170865058899,8.972270965576172
1713722602409418107,0.10333064943552017,0.06604639440774918,-0.03834952041506767,1.2294225692749023,1.6891093254089355,10.69370174407959
1713722602418418107,-0.06924218684434891,0.092678003013134,-0.02130528911948204,0.5781996846199036,1.3239935636520386,11.014524459838867
1713722602428418107,-0.22050973773002625,0.08202536404132843,-0.020240023732185364,0.07900865375995636,0.50876784324646,10.632649421691895
1713722602437418107,-0.16937704384326935,-0.004261057823896408,-0.03834952041506767,-1.7609353065490723,-2.1380221843719482,8.90762710571289
1713722602447418107,-0.04580637067556381,-0.07350324839353561,0.007456851191818714,-2.38462495803833,-3.8271312713623047,7.760804653167725
1713722602457418107,0.11717908829450607,-0.08202536404132843,-0.00532632227987051,0.16998831927776337,-1.5849615335464478,9.096769332885742
1713722602466418107,0.10120011866092682,-0.027696875855326653,-0.037284255027770996,1.7717092037200928,0.32202011346817017,11.496956825256348
1713722602476418107,0.008522115647792816,0.04048004746437073,-0.06178533658385277,1.5897499322891235,-0.19871874153614044,11.911152839660645
1713722602485418107,-0.1299622654914856,0.07669904083013535,-0.0511326938867569,0.8439561128616333,-1.1312602758407593,11.956643104553223
1713722602495418107,-0.037284255027770996,-0.011717909015715122,-0.09693906456232071,-1.6699556112289429,-3.751713991165161,9.50617790222168
1713722602505418107,0.05006742849946022,-0.05326322093605995,0.004261057823896408,-1.6950948238372803,-4.128800868988037,7.717709064483643
1713722602514418107,0.23329290747642517,-0.06817692518234253,-0.06285060197114944,0.6847416758537292,-1.0845733880996704,8.222885131835938
1713722602523418107,0.1768338978290558,0.011717909015715122,-0.047936901450157166,1.179144263267517,1.181538462638855,9.39365005493164
1713722602534418107,0.06924218684434891,0.055393751710653305,-0.09480853378772736,0.9074024558067322,2.1523873805999756,11.074379920959473
1713722602543418107,-0.10439591109752655,0.07137271761894226,-0.055393751710653305,0.32441431283950806,1.382651448249817,10.599130630493164
1713722602553418107,-0.23009711503982544,0.049002163112163544,-0.07669904083013535,-0.19033902883529663,0.15562310814857483,10.552443504333496
1713722602562418107,-0.14594122767448425,-0.04580637067556381,-0.07563377171754837,-1.787271499633789,-2.7700912952423096,8.51138687133789
