t,gx,gy,gz,ax,ay,az
1713722594480674007,0.006391586735844612,0.0,-0.009587380103766918,-0.04429272934794426,-0.1975216418504715,9.764751434326172
1713722594490674007,0.006391586735844612,0.0,-0.01065264455974102,-0.04668693244457245,-0.20350714027881622,9.774328231811523
1713722594500674007,0.006391586735844612,0.0,-0.01065264455974102,-0.05506663769483566,-0.20470423996448517,9.77791976928711
1713722594510674007,0.006391586735844612,0.0,-0.011717909015715122,-0.05506663769483566,-0.1975216418504715,9.77672290802002
1713722594519674007,0.006391586735844612,0.0,-0.01065264455974102,-0.05386953800916672,-0.1951274424791336,9.773131370544434
1713722594529674007,0.006391586735844612,0.0,-0.01065264455974102,-0.05746084079146385,-0.19273322820663452,9.770736694335938
1713722594539674007,0.006391586735844612,0.001065264455974102,-0.01065264455974102,-0.05147533491253853,-0.1951274424791336,9.768342971801758
1713722594548674007,0.00532632227987051,0.0,-0.011717909015715122,-0.043095629662275314,-0.1975216418504715,9.771934509277344
1713722594558674007,0.006391586735844612,0.0,-0.01065264455974102,-0.047884032130241394,-0.19632454216480255,9.774328231811523
1713722594568674007,0.006391586735844612,0.0,-0.01065264455974102,-0.05386953800916672,-0.19632454216480255,9.770736694335938
1713722594577674007,0.006391586735844612,0.0,-0.01065264455974102,-0.05746084079146385,-0.19632454216480255,9.763554573059082
1713722594587674007,0.006391586735844612,0.0,-0.009587380103766918,-0.05147533491253853,-0.19273322820663452,9.768342971801758
1713722594597674007,0.006391586735844612,0.0,-0.01065264455974102,-0.0454898327589035,-0.19273322820663452,9.77791976928711
1713722594607674007,0.006391586735844612,0.0,-0.011717909015715122,-0.047884032130241394,-0.1975216418504715,9.768342971801758
1713722594616674007,0.006391586735844612,-0.001065264455974102,-0.01065264455974102,-0.04668693244457245,-0.19871874153614044,9.765948295593262
1713722594626674007,0.006391586735844612,-0.001065264455974102,-0.01065264455974102,-0.04668693244457245,-0.19632454216480255,9.775525093078613
1713722594636674007,0.006391586735844612,-0.001065264455974102,-0.011717909015715122,-0.04908113554120064,-0.20350714027881622,9.775525093078613
1713722594646674007,0.006391586735844612,0.0,-0.01065264455974102,-0.0454898327589035,-0.20949263870716095,9.769539833068848
1713722594655674007,0.006391586735844612,0.0,-0.01065264455974102,-0.0454898327589035,-0.1999158412218094,9.77672290802002
1713722594665674007,0.006391586735844612,0.0,-0.01065264455974102,-0.040701426565647125,-0.19273322820663452,9.783905029296875
1713722594674674007,0.006391586735844612,0.0,-0.01065264455974102,-0.03232172131538391,-0.19632454216480255,9.775525093078613
1713722594684674007,0.006391586735844612,0.0,-0.011717909015715122,-0.03711012750864029,-0.1951274424791336,9.773131370544434
1713722594694674007,0.006391586735844612,-0.001065264455974102,-0.01065264455974102,-0.038307227194309235,-0.1951274424791336,9.775525093078613
1713722594704674007,0.006391586735844612,0.0,-0.011717909015715122,-0.04189852997660637,-0.20231004059314728,9.773131370544434
1713722594713674007,0.006391586735844612,0.0,-0.01065264455974102,-0.047884032130241394,-0.20231004059314728,9.773131370544434
1713722594723674007,0.006391586735844612,-0.001065264455974102,-0.009587380103766918,-0.0454898327589035,-0.19632454216480255,9.773131370544434
1713722594733674007,0.006391586735844612,0.0,-0.011717909015715122,-0.043095629662275314,-0.19871874153614044,9.77672290802002
1713722594743674007,0.006391586735844612,0.001065264455974102,-0.01065264455974102,-0.035913024097681046,-0.20231004059314728,9.771934509277344
1713722594752674007,0.006391586735844612,0.0,-0.01065264455974102,-0.04189852997660637,-0.20111294090747833,9.771934509277344
1713722594762674007,0.006391586735844612,-0.001065264455974102,-0.009587380103766918,-0.05267243832349777,-0.19632454216480255,9.782708168029785
1713722594772674007,0.006391586735844612,0.0,-0.009587380103766918,-0.047884032130241394,-0.19273322820663452,9.782708168029785
1713722594782674007,0.006391586735844612,0.001065264455974102,-0.01065264455974102,-0.04668693244457245,-0.20111294090747833,9.775525093078613
1713722594791674007,0.006391586735844612,0.001065264455974102,-0.01065264455974102,-0.04429272934794426,-0.20350714027881622,9.764751434326172
1713722594801674007,0.006391586735844612,0.0,-0.01065264455974102,-0.04189852997660637,-0.20350714027881622,9.767146110534668
1713722594810674007,0.006391586735844612,0.0,-0.01065264455974102,-0.04908113554120064,-0.20350714027881622,9.7791166305542
1713722594820674007,0.006391586735844612,0.0,-0.01065264455974102,-0.05746084079146385,-0.1975216418504715,9.783905029296875
1713722594830674007,0.006391586735844612,0.001065264455974102,-0.01065264455974102,-0.05386953800916672,-0.1999158412218094,9.771934509277344
1713722594840674007,0.006391586735844612,0.0,-0.01065264455974102,-0.0454898327589035,-0.1975216418504715,9.765948295593262
1713722594849674007,0.006391586735844612,0.0,-0.01065264455974102,-0.04668693244457245,-0.19393032789230347,9.773131370544434
1713722594859674007,0.006391586735844612,0.001065264455974102,-0.01065264455974102,-0.04908113554120064,-0.19632454216480255,9.787496566772461
1713722594869674007,0.006391586735844612,0.001065264455974102,-0.01065264455974102,-0.05506663769483566,-0.19871874153614044,9.786299705505371
1713722594878674007,0.007456851191818714,0.001065264455974102,-0.009587380103766918,-0.05626373738050461,-0.20350714027881622,9.775525093078613
1713722594888674007,0.006391586735844612,0.0,-0.01065264455974102,-0.04908113554120064,-0.20350714027881622,9.77672290802002
1713722594898674007,0.006391586735844612,0.0,-0.01065264455974102,-0.04908113554120064,-0.19871874153614044,9.769539833068848
1713722594908674007,0.006391586735844612,0.0,-0.01065264455974102,-0.04908113554120064,-0.1999158412218094,9.767146110534668
1713722594917674007,0.006391586735844612,0.0,-0.01065264455974102,-0.04429272934794426,-0.19632454216480255,9.774328231811523
1713722594927674007,0.006391586735844612,0.0,-0.01065264455974102,-0.040701426565647125,-0.19393032789230347,9.781511306762695
1713722594936674007,0.006391586735844612,0.0,-0.01065264455974102,-0.04668693244457245,-0.19632454216480255,9.775525093078613
1713722594946674007,0.006391586735844612,0.0,-0.01065264455974102,-0.05267243832349777,-0.19393032789230347,9.768342971801758
1713722594956674007,0.00532632227987051,0.0,-0.01065264455974102,-0.04908113554120064,-0.19273322820663452,9.781511306762695
1713722594966674007,0.007456851191818714,0.0,-0.01065264455974102,-0.04668693244457245,-0.20231004059314728,9.78869342803955
1713722594975674007,0.006391586735844612,0.001065264455974102,-0.009587380103766918,-0.04189852997660637,-0.20709843933582306,9.77791976928711
1713722594985400945,0.006391586735844612,0.0,-0.01065264455974102,-0.047884032130241394,-0.1951274424791336,9.770736694335938
1713722594995400945,0.006391586735844612,0.0,-0.01065264455974102,-0.0586579404771328,-0.19393032789230347,9.774328231811523
1713722595005400945,0.006391586735844612,0.001065264455974102,-0.009587380103766918,-0.05147533491253853,-0.19632454216480255,9.77672290802002
1713722595014400945,0.00532632227987051,0.0,-0.01065264455974102,-0.040701426565647125,-0.19632454216480255,9.767146110534668
1713722595024400945,0.006391586735844612,0.0,-0.01065264455974102,-0.043095629662275314,-0.1975216418504715,9.762357711791992
1713722595034400945,0.00532632227987051,0.0,-0.01065264455974102,-0.05027823522686958,-0.1975216418504715,9.7791166305542
1713722595044400945,0.006391586735844612,0.0,-0.01065264455974102,-0.05386953800916672,-0.19393032789230347,9.785101890563965
1713722595053400945,0.006391586735844612,0.0,-0.01065264455974102,-0.05626373738050461,-0.1951274424791336,9.771934509277344
1713722595063400945,0.006391586735844612,0.0,-0.01065264455974102,-0.05267243832349777,-0.2059013396501541,9.774328231811523
1713722595073400945,0.006391586735844612,0.0,-0.01065264455974102,-0.05027823522686958,-0.2059013396501541,9.782708168029785
1713722595082400945,0.006391586735844612,0.0,-0.01065264455974102,-0.05386953800916672,-0.1999158412218094,9.7791166305542
1713722595092400945,0.006391586735844612,0.0,-0.01065264455974102,-0.05506663769483566,-0.1951274424791336,9.771934509277344
1713722595102400945,0.006391586735844612,0.0,-0.01065264455974102,-0.04668693244457245,-0.19632454216480255,9.770736694335938
1713722595112400945,0.006391586735844612,-0.001065264455974102,-0.01065264455974102,-0.04429272934794426,-0.20470423996448517,9.769539833068848
1713722595121400945,0.006391586735844612,0.0,-0.01065264455974102,-0.05027823522686958,-0.2059013396501541,9.769539833068848
1713722595131400945,0.006391586735844612,0.0,-0.01065264455974102,-0.04668693244457245,-0.20470423996448517,9.780313491821289
1713722595141400945,0.006391586735844612,0.0,-0.009587380103766918,-0.04668693244457245,-0.20231004059314728,9.782708168029785
1713722595150400945,0.006391586735844612,0.0,-0.01065264455974102,-0.04908113554120064,-0.20111294090747833,9.7791166305542
1713722595160400945,0.006391586735844612,-0.001065264455974102,-0.01065264455974102,-0.047884032130241394,-0.19632454216480255,9.780313491821289
1713722595170400945,0.006391586735844612,0.0,-0.01065264455974102,-0.04189852997660637,-0.19273322820663452,9.77672290802002
1713722595179400945,0.006391586735844612,0.0,-0.01065264455974102,-0.040701426565647125,-0.19393032789230347,9.775525093078613
1713722595189400945,0.006391586735844612,0.0,-0.01065264455974102,-0.043095629662275314,-0.19273322820663452,9.77672290802002
1713722595199400945,0.006391586735844612,0.0,-0.01065264455974102,-0.04908113554120064,-0.19632454216480255,9.770736694335938
1713722595209400945,0.00532632227987051,0.0,-0.01065264455974102,-0.04908113554120064,-0.1999158412218094,9.769539833068848
1713722595218400945,0.006391586735844612,-0.001065264455974102,-0.01065264455974102,-0.047884032130241394,-0.1999158412218094,9.773131370544434
1713722595228400945,0.006391586735844612,-0.001065264455974102,-0.01065264455974102,-0.04908113554120064,-0.1975216418504715,9.773131370544434
1713722595238400945,0.006391586735844612,0.0,-0.01065264455974102,-0.043095629662275314,-0.19632454216480255,9.774328231811523
1713722595247400945,0.006391586735844612,-0.001065264455974102,-0.01065264455974102,-0.03950432687997818,-0.20350714027881622,9.7791166305542
1713722595257400945,0.006391586735844612,0.0,-0.01065264455974102,-0.04429272934794426,-0.2059013396501541,9.7791166305542
1713722595267400945,0.006391586735844612,0.0,-0.01065264455974102,-0.05267243832349777,-0.20350714027881622,9.773131370544434
1713722595276400945,0.006391586735844612,0.0,-0.01065264455974102,-0.05626373738050461,-0.19871874153614044,9.768342971801758
1713722595286400945,0.006391586735844612,0.0,-0.01065264455974102,-0.0586579404771328,-0.19393032789230347,9.77791976928711
1713722595296400945,0.006391586735844612,0.0,-0.01065264455974102,-0.05147533491253853,-0.20231004059314728,9.783905029296875
1713722595306400945,0.006391586735844612,-0.001065264455974102,-0.01065264455974102,-0.043095629662275314,-0.1999158412218094,9.77791976928711
1713722595315400945,0.006391586735844612,0.0,-0.01065264455974102,-0.038307227194309235,-0.1975216418504715,9.7791166305542
1713722595325400945,0.006391586735844612,0.0,-0.01065264455974102,-0.043095629662275314,-0.208295539021492,9.785101890563965
1713722595335400945,0.006391586735844612,0.0,-0.01065264455974102,-0.04908113554120064,-0.20350714027881622,9.786299705505371
1713722595344400945,0.006391586735844612,0.001065264455974102,-0.01065264455974102,-0.03950432687997818,-0.19632454216480255,9.77672290802002
1713722595354400945,0.006391586735844612,0.0,-0.009587380103766918,-0.04189852997660637,-0.1999158412218094,9.770736694335938
1713722595364400945,0.006391586735844612,0.0,-0.01065264455974102,-0.0454898327589035,-0.20231004059314728,9.780313491821289
1713722595373400945,0.006391586735844612,0.0,-0.011717909015715122,-0.04668693244457245,-0.19393032789230347,9.786299705505371
1713722595383400945,0.006391586735844612,0.0,-0.01065264455974102,-0.05267243832349777,-0.19033902883529663,9.774328231811523
1713722595393400945,0.00532632227987051,0.0,-0.01065264455974102,-0.04668693244457245,-0.1951274424791336,9.769539833068848
1713722595403400945,0.006391586735844612,0.0,-0.01065264455974102,-0.0454898327589035,-0.1999158412218094,9.77672290802002
1713722595413400945,0.006391586735844612,0.0,-0.01065264455974102,-0.05147533491253853,-0.1999158412218094,9.77791976928711
1713722595422400945,0.006391586735844612,0.001065264455974102,-0.01065264455974102,-0.04908113554120064,-0.19632454216480255,9.775525093078613
1713722595432400945,0.006391586735844612,-0.001065264455974102,-0.01065264455974102,-0.04429272934794426,-0.19393032789230347,9.774328231811523
1713722595442400945,0.006391586735844612,-0.001065264455974102,-0.01065264455974102,-0.04429272934794426,-0.19153612852096558,9.775525093078613
1713722595451400945,0.00532632227987051,0.0,-0.01065264455974102,-0.047884032130241394,-0.1951274424791336,9.775525093078613
1713722595461400945,0.006391586735844612,0.0,-0.01065264455974102,-0.05027823522686958,-0.19632454216480255,9.771934509277344
1713722595471400945,0.006391586735844612,0.0,-0.009587380103766918,-0.04908113554120064,-0.19273322820663452,9.775525093078613
1713722595480400945,0.006391586735844612,0.0,-0.01065264455974102,-0.047884032130241394,-0.1975216418504715,9.77791976928711
1713722595490400945,0.006391586735844612,0.0,-0.009587380103766918,-0.04668693244457245,-0.1975216418504715,9.77791976928711
1713722595500400945,0.006391586735844612,0.0,-0.01065264455974102,-0.05027823522686958,-0.19033902883529663,9.774328231811523
1713722595509400945,0.006391586735844612,0.0,-0.01065264455974102,-0.04908113554120064,-0.18914192914962769,9.773131370544434
1713722595519400945,0.006391586735844612,0.0,-0.01065264455974102,-0.04668693244457245,-0.19153612852096558,9.785101890563965
1713722595529400945,0.006391586735844612,0.0,-0.01065264455974102,-0.047884032130241394,-0.1975216418504715,9.780313491821289
1713722595538400945,0.006391586735844612,0.0,-0.01065264455974102,-0.0454898327589035,-0.19393032789230347,9.765948295593262
1713722595548400945,0.006391586735844612,0.001065264455974102,-0.01065264455974102,-0.04668693244457245,-0.19393032789230347,9.771934509277344
1713722595558400945,0.006391586735844612,0.0,-0.01065264455974102,-0.047884032130241394,-0.20111294090747833,9.780313491821289
1713722595568400945,0.006391586735844612,0.0,-0.01065264455974102,-0.04429272934794426,-0.2059013396501541,9.780313491821289
1713722595577400945,0.006391586735844612,0.0,-0.01065264455974102,-0.043095629662275314,-0.20470423996448517,9.77672290802002
1713722595587400945,0.006391586735844612,0.0,-0.01065264455974102,-0.043095629662275314,-0.20111294090747833,9.77672290802002
1713722595597400945,0.006391586735844612,0.0,-0.01065264455974102,-0.038307227194309235,-0.20111294090747833,9.77672290802002
1713722595607400945,0.006391586735844612,0.0,-0.01065264455974102,-0.03711012750864029,-0.20709843933582306,9.773131370544434
1713722595616400945,0.006391586735844612,0.0,-0.011717909015715122,-0.04189852997660637,-0.20949263870716095,9.780313491821289
1713722595626400945,0.006391586735844612,0.0,-0.011717909015715122,-0.05027823522686958,-0.20350714027881622,9.783905029296875
1713722595636400945,0.006391586735844612,0.0,-0.01065264455974102,-0.047884032130241394,-0.1975216418504715,9.781511306762695
1713722595645400945,0.006391586735844612,0.0,-0.01065264455974102,-0.040701426565647125,-0.19273322820663452,9.780313491821289
1713722595655400945,0.006391586735844612,0.0,-0.01065264455974102,-0.040701426565647125,-0.19153612852096558,9.781511306762695
1713722595665400945,0.006391586735844612,0.001065264455974102,-0.01065264455974102,-0.03711012750864029,-0.19393032789230347,9.785101890563965
1713722595675400945,0.00532632227987051,0.0,-0.01065264455974102,-0.038307227194309235,-0.1951274424791336,9.781511306762695
1713722595684400945,0.006391586735844612,-0.001065264455974102,-0.01065264455974102,-0.047884032130241394,-0.19871874153614044,9.768342971801758
1713722595694400945,0.006391586735844612,0.0,-0.01065264455974102,-0.04908113554120064,-0.20470423996448517,9.775525093078613
1713722595704400945,0.006391586735844612,0.0,-0.01065264455974102,-0.05027823522686958,-0.19632454216480255,9.783905029296875
1713722595714400945,0.006391586735844612,0.0,-0.01065264455974102,-0.047884032130241394,-0.19273322820663452,9.773131370544434
1713722595723400945,0.007456851191818714,0.0,-0.01065264455974102,-0.03950432687997818,-0.19871874153614044,9.768342971801758
1713722595733400945,0.006391586735844612,-0.001065264455974102,-0.01065264455974102,-0.040701426565647125,-0.20111294090747833,9.775525093078613
1713722595743400945,0.006391586735844612,-0.001065264455974102,-0.01065264455974102,-0.04908113554120064,-0.1999158412218094,9.77791976928711
1713722595752400945,0.006391586735844612,0.0,-0.01065264455974102,-0.05626373738050461,-0.20111294090747833,9.774328231811523
1713722595762400945,0.006391586735844612,0.0,-0.01065264455974102,-0.05147533491253853,-0.1975216418504715,9.77672290802002
1713722595772400945,0.006391586735844612,0.0,-0.009587380103766918,-0.047884032130241394,-0.1951274424791336,9.781511306762695
1713722595782400945,0.006391586735844612,0.0,-0.01065264455974102,-0.047884032130241394,-0.20111294090747833,9.781511306762695
1713722595791400945,0.00532632227987051,0.0,-0.01065264455974102,-0.0454898327589035,-0.19871874153614044,9.7791166305542
1713722595801400945,0.00532632227987051,0.0,-0.01065264455974102,-0.0454898327589035,-0.19632454216480255,9.77672290802002
1713722595810400945,0.006391586735844612,0.0,-0.01065264455974102,-0.043095629662275314,-0.20231004059314728,9.7791166305542
1713722595820400945,0.006391586735844612,0.0,-0.01065264455974102,-0.04668693244457245,-0.1999158412218094,9.782708168029785
1713722595830400945,0.006391586735844612,0.0,-0.01065264455974102,-0.05027823522686958,-0.19632454216480255,9.77672290802002
1713722595840400945,0.006391586735844612,0.0,-0.01065264455974102,-0.043095629662275314,-0.19871874153614044,9.774328231811523
1713722595849400945,0.006391586735844612,0.0,-0.01065264455974102,-0.04189852997660637,-0.2059013396501541,9.783905029296875
1713722595859400945,0.006391586735844612,0.0,-0.011717909015715122,-0.04429272934794426,-0.20470423996448517,9.782708168029785
1713722595869400945,0.006391586735844612,0.0,-0.011717909015715122,-0.04908113554120064,-0.1999158412218094,9.77791976928711
1713722595878400945,0.006391586735844612,0.0,-0.01065264455974102,-0.04908113554120064,-0.19871874153614044,9.781511306762695
1713722595888400945,0.006391586735844612,0.0,-0.01065264455974102,-0.04668693244457245,-0.2059013396501541,9.781511306762695
1713722595898400945,0.006391586735844612,0.0,-0.01065264455974102,-0.0454898327589035,-0.208295539021492,9.77791976928711
1713722595907400945,0.00532632227987051,0.0,-0.01065264455974102,-0.04668693244457245,-0.20470423996448517,9.77791976928711
1713722595917400945,0.006391586735844612,0.0,-0.01065264455974102,-0.05147533491253853,-0.20350714027881622,9.77791976928711
1713722595927400945,0.006391586735844612,0.0,-0.009587380103766918,-0.04668693244457245,-0.1999158412218094,9.77791976928711
1713722595937400945,0.006391586735844612,0.0,-0.01065264455974102,-0.04189852997660637,-0.1975216418504715,9.77672290802002
1713722595946400945,0.006391586735844612,-0.001065264455974102,-0.01065264455974102,-0.047884032130241394,-0.1999158412218094,9.7791166305542
1713722595956400945,0.00532632227987051,0.0,-0.01065264455974102,-0.05027823522686958,-0.1975216418504715,9.781511306762695
1713722595966400945,0.006391586735844612,0.0,-0.01065264455974102,-0.05027823522686958,-0.20111294090747833,9.77672290802002
1713722595976400945,0.006391586735844612,0.0,-0.01065264455974102,-0.04429272934794426,-0.20709843933582306,9.774328231811523
1713722595985400945,0.006391586735844612,0.0,-0.01065264455974102,-0.035913024097681046,-0.1999158412218094,9.775525093078613
1713722595995400945,0.006391586735844612,0.0,-0.01065264455974102,-0.03950432687997818,-0.19632454216480255,9.785101890563965
1713722596005400945,0.006391586735844612,0.0,-0.01065264455974102,-0.033518824726343155,-0.1951274424791336,9.787496566772461
1713722596014400945,0.006391586735844612,0.0,-0.011717909015715122,-0.035913024097681046,-0.20111294090747833,9.77791976928711
1713722596024400945,0.006391586735844612,0.0,-0.01065264455974102,-0.0454898327589035,-0.20350714027881622,9.77672290802002
1713722596034400945,0.006391586735844612,0.0,-0.01065264455974102,-0.04668693244457245,-0.19393032789230347,9.77791976928711
1713722596044400945,0.006391586735844612,0.0,-0.01065264455974102,-0.05386953800916672,-0.19153612852096558,9.77672290802002
1713722596053400945,0.007456851191818714,0.0,-0.01065264455974102,-0.05147533491253853,-0.19153612852096558,9.7791166305542
1713722596063400945,0.006391586735844612,0.0,-0.01065264455974102,-0.040701426565647125,-0.1975216418504715,9.785101890563965
1713722596073400945,0.006391586735844612,0.0,-0.01065264455974102,-0.03711012750864029,-0.20709843933582306,9.781511306762695
1713722596082400945,0.006391586735844612,0.0,-0.01065264455974102,-0.04189852997660637,-0.20350714027881622,9.774328231811523
1713722596092400945,0.006391586735844612,-0.001065264455974102,-0.01065264455974102,-0.05147533491253853,-0.20231004059314728,9.770736694335938
1713722596102400945,0.006391586735844612,0.0,-0.011717909015715122,-0.0586579404771328,-0.208295539021492,9.77672290802002
1713722596112400945,0.006391586735844612,0.0,-0.01065264455974102,-0.04908113554120064,-0.20111294090747833,9.77672290802002
1713722596121400945,0.006391586735844612,0.0,-0.01065264455974102,-0.04668693244457245,-0.19033902883529663,9.767146110534668
1713722596131400945,0.00532632227987051,0.0,-0.01065264455974102,-0.05267243832349777,-0.1951274424791336,9.775525093078613
1713722596141400945,0.006391586735844612,0.0,-0.01065264455974102,-0.043095629662275314,-0.1951274424791336,9.793481826782227
1713722596150400945,0.007456851191818714,0.0,-0.01065264455974102,-0.0347159244120121,-0.19393032789230347,9.791088104248047
1713722596160400945,0.006391586735844612,0.0,-0.01065264455974102,-0.0454898327589035,-0.1975216418504715,9.7791166305542
1713722596170400945,0.006391586735844612,0.0,-0.01065264455974102,-0.05267243832349777,-0.19632454216480255,9.780313491821289
1713722596180400945,0.006391586735844612,-0.001065264455974102,-0.01065264455974102,-0.04908113554120064,-0.1951274424791336,9.786299705505371
1713722596189400945,0.006391586735844612,0.0,-0.01065264455974102,-0.043095629662275314,-0.1951274424791336,9.782708168029785
1713722596199400945,0.006391586735844612,0.0,-0.01065264455974102,-0.043095629662275314,-0.20470423996448517,9.77791976928711
1713722596208400945,0.006391586735844612,0.0,-0.01065264455974102,-0.04908113554120064,-0.20350714027881622,9.782708168029785
1713722596218400945,0.006391586735844612,0.0,-0.01065264455974102,-0.05027823522686958,-0.19033902883529663,9.783905029296875
1713722596228400945,0.006391586735844612,0.0,-0.01065264455974102,-0.047884032130241394,-0.19871874153614044,9.7791166305542
1713722596238400945,0.006391586735844612,-0.001065264455974102,-0.01065264455974102,-0.03950432687997818,-0.20231004059314728,9.774328231811523
1713722596248400945,0.006391586735844612,0.0,-0.009587380103766918,-0.043095629662275314,-0.1951274424791336,9.782708168029785
1713722596257400945,0.006391586735844612,0.0,-0.01065264455974102,-0.05147533491253853,-0.19871874153614044,9.782708168029785
1713722596267400945,0.006391586735844612,0.0,-0.01065264455974102,-0.04908113554120064,-0.1951274424791336,9.77672290802002
1713722596276400945,0.006391586735844612,0.0,-0.01065264455974102,-0.05267243832349777,-0.19273322820663452,9.785101890563965
1713722596286400945,0.007456851191818714,0.0,-0.01065264455974102,-0.05267243832349777,-0.1975216418504715,9.785101890563965
1713722596296400945,0.006391586735844612,0.001065264455974102,-0.01065264455974102,-0.043095629662275314,-0.20111294090747833,9.781511306762695
1713722596306400945,0.006391586735844612,0.001065264455974102,-0.01065264455974102,-0.04668693244457245,-0.20231004059314728,9.780313491821289
1713722596315400945,0.006391586735844612,0.0,-0.01065264455974102,-0.04429272934794426,-0.1999158412218094,9.7791166305542
1713722596325400945,0.006391586735844612,-0.001065264455974102,-0.01065264455974102,-0.035913024097681046,-0.1975216418504715,9.783905029296875
1713722596335400945,0.006391586735844612,0.0,-0.01065264455974102,-0.035913024097681046,-0.1951274424791336,9.783905029296875
1713722596345400945,0.00532632227987051,-0.001065264455974102,-0.011717909015715122,-0.03711012750864029,-0.1975216418504715,9.780313491821289
1713722596354400945,0.006391586735844612,0.0,-0.01065264455974102,-0.0454898327589035,-0.20231004059314728,9.780313491821289
1713722596364400945,0.006391586735844612,0.001065264455974102,-0.01065264455974102,-0.05027823522686958,-0.19871874153614044,9.781511306762695
1713722596374400945,0.006391586735844612,0.001065264455974102,-0.01065264455974102,-0.047884032130241394,-0.1951274424791336,9.775525093078613
1713722596384400945,0.00532632227987051,0.0,-0.01065264455974102,-0.0454898327589035,-0.19273322820663452,9.765948295593262
1713722596393400945,0.006391586735844612,0.0,-0.01065264455974102,-0.038307227194309235,-0.19153612852096558,9.774328231811523
1713722596403400945,0.006391586735844612,0.001065264455974102,-0.01065264455974102,-0.03711012750864029,-0.19632454216480255,9.785101890563965
1713722596412400945,0.006391586735844612,0.001065264455974102,-0.01065264455974102,-0.04189852997660637,-0.1975216418504715,9.780313491821289
1713722596422400945,0.006391586735844612,0.0,-0.01065264455974102,-0.043095629662275314,-0.20350714027881622,9.77791976928711
1713722596432400945,0.006391586735844612,0.0,-0.01065264455974102,-0.04429272934794426,-0.20111294090747833,9.7791166305542
1713722596442400945,0.006391586735844612,0.001065264455974102,-0.01065264455974102,-0.05027823522686958,-0.19153612852096558,9.77791976928711
1713722596451400945,0.006391586735844612,0.0,-0.01065264455974102,-0.05267243832349777,-0.1951274424791336,9.780313491821289
1713722596461400945,0.006391586735844612,-0.001065264455974102,-0.011717909015715122,-0.05147533491253853,-0.1999158412218094,9.780313491821289
1713722596471400945,0.006391586735844612,0.0,-0.01065264455974102,-0.04908113554120064,-0.20111294090747833,9.780313491821289
1713722596481400945,0.006391586735844612,0.0,-0.009587380103766918,-0.04189852997660637,-0.20111294090747833,9.780313491821289
1713722596490400945,0.00532632227987051,0.0,-0.01065264455974102,-0.04429272934794426,-0.1999158412218094,9.7791166305542
1713722596500400945,0.006391586735844612,0.0,-0.009587380103766918,-0.05267243832349777,-0.20111294090747833,9.786299705505371
1713722596510400945,0.006391586735844612,0.0,-0.01065264455974102,-0.05027823522686958,-0.19632454216480255,9.78989028930664
1713722596519400945,0.006391586735844612,0.0,-0.01065264455974102,-0.04908113554120064,-0.19393032789230347,9.77791976928711
1713722596529400945,0.006391586735844612,0.0,-0.01065264455974102,-0.05027823522686958,-0.19273322820663452,9.764751434326172
1713722596539400945,0.006391586735844612,-0.001065264455974102,-0.01065264455974102,-0.04668693244457245,-0.20111294090747833,9.774328231811523
1713722596549400945,0.007456851191818714,0.0,-0.01065264455974102,-0.04908113554120064,-0.20111294090747833,9.780313491821289
1713722596559400945,0.006391586735844612,0.0,-0.01065264455974102,-0.05027823522686958,-0.20111294090747833,9.771934509277344
1713722596568400945,0.00532632227987051,0.0,-0.01065264455974102,-0.05267243832349777,-0.20709843933582306,9.771934509277344
1713722596577400945,0.006391586735844612,0.0,-0.01065264455974102,-0.05626373738050461,-0.20231004059314728,9.77791976928711
1713722596587400945,0.006391586735844612,0.0,-0.009587380103766918,-0.05027823522686958,-0.20111294090747833,9.781511306762695
1713722596597400945,0.006391586735844612,0.0,-0.01065264455974102,-0.04908113554120064,-0.20231004059314728,9.775525093078613
1713722596607400945,0.006391586735844612,0.0,-0.01065264455974102,-0.043095629662275314,-0.19632454216480255,9.771934509277344
1713722596616400945,0.006391586735844612,0.0,-0.01065264455974102,-0.03950432687997818,-0.1951274424791336,9.774328231811523
1713722596626400945,0.006391586735844612,0.0,-0.01065264455974102,-0.04429272934794426,-0.20231004059314728,9.773131370544434
1713722596636400945,0.006391586735844612,-0.001065264455974102,-0.01065264455974102,-0.04668693244457245,-0.20470423996448517,9.774328231811523
1713722596646400945,0.006391586735844612,-0.001065264455974102,-0.01065264455974102,-0.047884032130241394,-0.19871874153614044,9.771934509277344
1713722596655400945,0.006391586735844612,0.0,-0.01065264455974102,-0.04908113554120064,-0.19393032789230347,9.7791166305542
1713722596666400945,0.006391586735844612,0.0,-0.01065264455974102,-0.04908113554120064,-0.19393032789230347,9.782708168029785
1713722596675400945,0.006391586735844612,0.0,-0.01065264455974102,-0.04668693244457245,-0.1975216418504715,9.769539833068848
1713722596685400945,0.006391586735844612,0.0,-0.01065264455974102,-0.04668693244457245,-0.1999158412218094,9.774328231811523
1713722596694400945,0.006391586735844612,0.0,-0.01065264455974102,-0.04429272934794426,-0.20231004059314728,9.785101890563965
1713722596704400945,0.006391586735844612,0.0,-0.01065264455974102,-0.04429272934794426,-0.1951274424791336,9.77672290802002
1713722596714400945,0.006391586735844612,0.0,-0.01065264455974102,-0.03950432687997818,-0.19273322820663452,9.764751434326172
1713722596723400945,0.006391586735844612,-0.001065264455974102,-0.01065264455974102,-0.04189852997660637,-0.1975216418504715,9.770736694335938
1713722596733400945,0.006391586735844612,0.0,-0.01065264455974102,-0.043095629662275314,-0.20111294090747833,9.786299705505371
1713722596743400945,0.006391586735844612,0.0,-0.011717909015715122,-0.03711012750864029,-0.1999158412218094,9.783905029296875
1713722596752400945,0.007456851191818714,0.0,-0.01065264455974102,-0.04429272934794426,-0.1975216418504715,9.770736694335938
1713722596762400945,0.00532632227987051,-0.001065264455974102,-0.01065264455974102,-0.02274491637945175,-0.020350713282823563,9.96945571899414
1713722596772400945,0.019174760207533836,-0.001065264455974102,-0.011717909015715122,-0.104147769510746,0.1867477297782898,9.873687744140625
1713722596781400945,0.019174760207533836,0.004261057823896408,-0.007456851191818714,-0.12449848651885986,0.5255272388458252,10.202890396118164
1713722596791400945,0.0511326938867569,0.007456851191818714,-0.008522115647792816,0.0454898327589035,1.1420341730117798,10.36689281463623
1713722596801400945,0.08202536404132843,0.00532632227987051,-0.011717909015715122,0.011971008032560349,1.5514426231384277,9.130288124084473
1713722596811400945,0.07030745595693588,0.003195793367922306,-0.009587380103766918,-0.12449848651885986,1.6891093254089355,9.501389503479004
1713722596820400945,0.06711165606975555,-0.001065264455974102,-0.008522115647792816,0.09696516394615173,1.722628116607666,10.915164947509766
1713722596830400945,0.08522115647792816,-0.009587380103766918,-0.013848437927663326,0.15562310814857483,2.0482394695281982,9.612719535827637
1713722596840400945,0.04261057823896408,-0.008522115647792816,-0.015978965908288956,0.05985504016280174,2.230198860168457,8.316259384155273
1713722596849400945,-0.017044231295585632,-0.002130528911948204,-0.019174760207533836,0.12210428714752197,1.9536685943603516,10.196905136108398
1713722596859400945,-0.009587380103766918,0.007456851191818714,-0.01810949482023716,0.07422025501728058,2.027888774871826,10.348937034606934
1713722596869400945,-0.006391586735844612,0.014913702383637428,-0.017044231295585632,-0.13407529890537262,2.251746654510498,8.195352554321289
1713722596879400945,-0.06178533658385277,0.022370552644133568,-0.011717909015715122,-0.181959331035614,2.0195090770721436,9.513360023498535
1713722596888400945,-0.030892668291926384,0.012783173471689224,-0.011717909015715122,-0.03711012750864029,1.8997989892959595,10.609904289245605
1713722596898400945,-0.011717909015715122,-0.002130528911948204,-0.014913702383637428,-0.22026655077934265,1.930923581123352,8.882488250732422
1713722596908400945,-0.04580637067556381,-0.012783173471689224,-0.011717909015715122,-0.1364694982767105,1.6855180263519287,9.749189376831055
1713722596917400945,-0.02130528911948204,-0.023435818031430244,-0.015978965908288956,-0.005985504016280174,1.5298948287963867,10.548852920532227
1713722596927400945,-0.02556634694337845,-0.015978965908288956,-0.012783173471689224,-0.031124621629714966,1.2773065567016602,9.890446662902832
1713722596937400945,-0.04687163606286049,0.0,-0.012783173471689224,0.12090718746185303,0.7134720683097839,10.517727851867676
1713722596947400945,-0.02876213937997818,0.02130528911948204,-0.01065264455974102,0.02274491637945175,0.3172317147254944,9.634267807006836
1713722596956400945,-0.044741105288267136,0.037284255027770996,-0.006391586735844612,0.014365210197865963,0.07781155407428741,9.139864921569824
1713722596966400945,0.001065264455974102,0.02130528911948204,-0.009587380103766918,0.021547814831137657,-0.035913024097681046,9.510966300964355
1713722596976400945,0.004261057823896408,0.01065264455974102,-0.00532632227987051,-0.15083470940589905,-0.07422025501728058,9.32661247253418
1713722596985400945,0.02556634694337845,0.001065264455974102,-0.008522115647792816,-0.21428105235099792,-0.31124621629714966,9.255983352661133
1713722596995400945,-0.04048004746437073,0.00532632227987051,-0.007456851191818714,-0.06823474913835526,-0.9911994934082031,9.695319175720215
1713722597005400945,-0.09906959533691406,-0.00532632227987051,-0.014913702383637428,-0.08499415963888168,-1.8806453943252563,10.94389533996582
1713722597015400945,-0.06178533658385277,-0.047936901450157166,-0.019174760207533836,-0.208295539021492,-2.1284453868865967,10.848127365112305
1713722597024400945,-0.05752427875995636,-0.0788295716047287,-0.02130528911948204,-0.009576806798577309,-2.2158336639404297,9.848548889160156
1713722597034400945,0.00532632227987051,-0.06604639440774918,-0.030892668291926384,0.18794482946395874,-2.0649988651275635,9.587580680847168
1713722597044400945,0.029827404767274857,0.023435818031430244,-0.022370552644133568,0.18315643072128296,-1.5143325328826904,9.661800384521484
1713722597054400945,0.05752427875995636,0.09054747968912125,-0.020240023732185364,0.11611878126859665,-1.4736311435699463,9.142258644104004
1713722597063400945,0.06711165606975555,0.08628641813993454,-0.019174760207533836,-0.05985504016280174,-1.6484078168869019,8.901641845703125
1713722597074400945,0.019174760207533836,0.03834952041506767,-0.013848437927663326,0.03950432687997818,-1.9177554845809937,9.616311073303223
1713722597082400945,-0.01810949482023716,-0.01810949482023716,-0.022370552644133568,-0.0586579404771328,-1.6771382093429565,10.286687850952148
1713722597092400945,-0.058589544147253036,-0.041545312851667404,-0.019174760207533836,-0.26575639843940735,-1.1743558645248413,10.284293174743652
1713722597102400945,-0.055393751710653305,-0.05326322093605995,-0.020240023732185364,-0.1999158412218094,-0.834379255771637,9.894038200378418
1713722597111400945,-0.023435818031430244,-0.034088462591171265,-0.015978965908288956,-0.20231004059314728,-0.3447650372982025,9.7791166305542
1713722597121400945,0.03621898964047432,0.012783173471689224,-0.013848437927663326,-0.25977087020874023,0.06224924325942993,10.018536567687988
1713722597131400945,0.07030745595693588,0.0649811327457428,-0.003195793367922306,-0.424970805644989,0.608127236366272,10.606313705444336
1713722597141400945,0.11185276508331299,0.07563377171754837,0.004261057823896408,-0.4010287821292877,0.9445125460624695,10.56800651550293
1713722597151400945,0.11078750342130661,0.04580637067556381,0.009587380103766918,-0.35913026332855225,1.3108254671096802,10.182539939880371
1713722597160400945,0.13528858125209808,-0.004261057823896408,0.011717909015715122,-0.32202011346817017,1.886630892753601,9.678560256958008
1713722597170400945,0.12357067316770554,-0.04580637067556381,0.014913702383637428,-0.19393032789230347,2.2409727573394775,8.850166320800781
1713722597180400945,0.08202536404132843,-0.06072007119655609,0.017044231295585632,-0.10055647045373917,2.233790159225464,9.011775016784668
1713722597189400945,0.03834952041506767,-0.04687163606286049,0.011717909015715122,0.05985504016280174,2.169146776199341,9.26675796508789
1713722597199400945,-0.01065264455974102,-0.02130528911948204,0.004261057823896408,0.2513911724090576,2.2577321529388428,8.900444984436035
1713722597209400945,-0.06711165606975555,0.015978965908288956,0.006391586735844612,0.17477671802043915,2.1128828525543213,9.206902503967285
1713722597218400945,-0.10333064943552017,0.03834952041506767,0.006391586735844612,0.12449848651885986,1.7693150043487549,9.84615421295166
1713722597228400945,-0.12463594228029251,0.04580637067556381,0.003195793367922306,0.16400282084941864,1.42454993724823,10.041281700134277
1713722597238400945,-0.13102751970291138,0.037284255027770996,-0.001065264455974102,0.09816227108240128,0.9768342971801758,10.320206642150879
1713722597248400945,-0.06285060197114944,-0.001065264455974102,-0.003195793367922306,-0.0071826050989329815,0.5805938839912415,10.008959770202637
1713722597257400945,-0.03941478580236435,-0.03515372797846794,-0.003195793367922306,-0.05626373738050461,0.3232172131538391,9.618704795837402
1713722597267400945,0.04048004746437073,-0.04687163606286049,-0.009587380103766918,0.11013327538967133,0.38546645641326904,9.352949142456055
1713722597277400945,0.055393751710653305,-0.011717909015715122,-0.013848437927663326,0.11971008032560349,0.39863458275794983,9.02135181427002
1713722597286400945,0.02556634694337845,0.03515372797846794,-0.014913702383637428,0.11611878126859665,0.104147769510746,9.404423713684082
1713722597296400945,-0.055393751710653305,0.06178533658385277,-0.015978965908288956,0.09696516394615173,-0.46806642413139343,10.590750694274902
1713722597306400945,-0.1342233121395111,0.04687163606286049,-0.013848437927663326,0.020350713282823563,-1.5705963373184204,12.521675109863281
1713722597315400945,-0.047936901450157166,-0.04580637067556381,-0.02130528911948204,-0.21787235140800476,-1.4712369441986084,11.36048698425293
1713722597325400945,-0.03195793181657791,-0.10759171098470688,-0.019174760207533836,-0.45010989904403687,-0.35673603415489197,9.198522567749023
1713722597335400945,0.16937704384326935,-0.09800432622432709,-0.023435818031430244,0.07900865375995636,0.4141968786716461,8.678980827331543
1713722597345400945,0.19387812912464142,-0.015978965908288956,-0.020240023732185364,0.3423708379268646,0.6979097723960876,8.597578048706055
1713722597354400945,0.1896170675754547,0.05965480953454971,-0.014913702383637428,-0.08978256583213806,0.5386953949928284,8.38808536529541
1713722597364400945,0.07243797928094864,0.11078750342130661,-0.004261057823896408,-0.17956513166427612,0.17238251864910126,8.769960403442383
1713722597374400945,-0.0884169489145279,0.1022653877735138,-0.004261057823896408,-0.061052143573760986,-0.4453215003013611,10.345345497131348
1713722597383400945,-0.21518342196941376,0.06604639440774918,-0.007456851191818714,-0.2298433631658554,-0.568622887134552,10.38724422454834
1713722597393400945,-0.21411815285682678,-0.03195793181657791,-0.019174760207533836,-0.2717418968677521,-0.19033902883529663,9.943119049072266
1713722597403400945,-0.1438107043504715,-0.1203748807311058,-0.024501081556081772,-0.23822306096553802,0.34596213698387146,8.513781547546387
1713722597413400945,-0.02556634694337845,-0.1299622654914856,-0.023435818031430244,0.040701426565647125,0.4429273009300232,8.90882396697998
1713722597422400945,0.07669904083013535,-0.047936901450157166,-0.023435818031430244,0.2669534981250763,0.06703764945268631,10.034099578857422
1713722597432400945,0.029827404767274857,0.06072007119655609,-0.01065264455974102,0.10175357013940811,-0.5937620401382446,10.532093048095703
1713722597442400945,-0.08628641813993454,0.13848437368869781,0.002130528911948204,0.07900865375995636,-1.4736311435699463,12.198457717895508
1713722597451400945,-0.006391586735844612,0.08948221057653427,-0.009587380103766918,-0.0694318488240242,-1.2629413604736328,11.871648788452148
1713722597461400945,0.04687163606286049,-0.008522115647792816,-0.013848437927663326,-0.2561795711517334,-0.21188685297966003,9.102754592895508
1713722597471400945,0.15446333587169647,-0.08202536404132843,-0.020240023732185364,0.2777273952960968,0.28730419278144836,8.65863037109375
1713722597481400945,0.23861923813819885,-0.09587380290031433,-0.037284255027770996,0.5602431893348694,0.48482584953308105,8.883685111999512
1713722597490749938,0.17257283627986908,-0.052197955548763275,-0.03834952041506767,0.22026655077934265,0.40462008118629456,7.8745293617248535
1713722597500749938,0.022370552644133568,-0.001065264455974102,-0.04580637067556381,0.3387795388698578,-0.1412578970193863,9.251194953918457
1713722597510749938,-0.12144014239311218,0.020240023732185364,-0.06391586363315582,0.46806642413139343,-0.365115761756897,10.202890396118164
1713722597519749938,-0.23329290747642517,0.05432848632335663,-0.07030745595693588,0.3711012601852417,-0.04668693244457245,9.431957244873047
1713722597529749938,-0.2641855776309967,0.07563377171754837,-0.07563377171754837,0.5171475410461426,0.3016694188117981,8.631096839904785
1713722597539749938,-0.15978966653347015,0.034088462591171265,-0.09054747968912125,0.6344634294509888,0.2908954918384552,8.96628475189209
1713722597548749938,-0.09906959533691406,-0.020240023732185364,-0.09587380290031433,0.6260837316513062,-0.2238578498363495,10.363302230834961
1713722597558749938,-0.023435818031430244,-0.047936901450157166,-0.10439591109752655,0.4620809257030487,-1.1264718770980835,12.234370231628418
1713722597568749938,-0.012783173471689224,-0.009587380103766918,-0.10865697264671326,0.28730419278144836,-1.5382745265960693,12.393585205078125
1713722597577749938,0.037284255027770996,0.024501081556081772,-0.1203748807311058,0.3471592366695404,-0.95528644323349,10.642226219177246
1713722597588749938,0.09161274135112762,0.027696875855326653,-0.12889699637889862,0.5159504413604736,-0.1975216418504715,8.614337921142578
1713722597597749938,0.17044231295585632,0.012783173471689224,-0.1395496428012848,0.7242460250854492,0.11372458189725876,8.437166213989258
1713722597607749938,0.1906823366880417,0.009587380103766918,-0.1576591432094574,0.7074865698814392,0.0694318488240242,8.854954719543457
1713722597616749938,0.10439591109752655,0.019174760207533836,-0.16831177473068237,0.6272808313369751,-0.23942016065120697,8.60356330871582
1713722597626749938,-0.05006742849946022,0.02130528911948204,-0.185356006026268,0.7386112213134766,-0.5171475410461426,9.57321548461914
1713722597636749938,-0.16618125140666962,0.011717909015715122,-0.20559602975845337,0.7230489253997803,-0.39384618401527405,9.607931137084961
1713722597646749938,-0.24714134633541107,0.0,-0.21624867618083954,0.9062053561210632,-0.1604115068912506,9.5408935546875
1713722597655749938,-0.15552860498428345,-0.041545312851667404,-0.23968449234962463,1.059434175491333,-0.18794482946395874,9.211690902709961
1713722597665749938,-0.13102751970291138,-0.05965480953454971,-0.24714134633541107,0.8535329103469849,-0.7541735172271729,10.079588890075684
1713722597675749938,-0.04687163606286049,-0.03302319720387459,-0.2556634545326233,0.6117185354232788,-1.5298948287963867,12.33492660522461
1713722597685749938,0.04367584362626076,0.030892668291926384,-0.26205503940582275,0.30526071786880493,-1.5275006294250488,12.137405395507812
1713722597695749938,0.13102751970291138,0.06072007119655609,-0.27164241671562195,0.2992752194404602,-0.8044517636299133,9.84735107421875
1713722597704749938,0.18429075181484222,0.047936901450157166,-0.28016453981399536,1.1516109704971313,-0.31842881441116333,8.69454288482666
1713722597714749938,0.22903186082839966,0.00532632227987051,-0.31212249398231506,1.3874398469924927,0.04668693244457245,8.528146743774414
1713722597723749938,0.14700649678707123,0.002130528911948204,-0.31744879484176636,0.6464344263076782,0.16759411990642548,8.184577941894531
1713722597733749938,-0.013848437927663326,0.00532632227987051,-0.33129724860191345,0.29209259152412415,-0.3124433159828186,9.654618263244629
1713722597743749938,-0.14061491191387177,0.012783173471689224,-0.3419498801231384,0.4297592043876648,-0.33997663855552673,9.995792388916016
1713722597752749938,-0.222640261054039,0.01065264455974102,-0.3536677956581116,0.6105214357376099,0.043095629662275314,8.537723541259766
1713722597762749938,-0.22796659171581268,-0.006391586735844612,-0.36432042717933655,0.8008604645729065,-0.0011971008498221636,9.14585018157959
1713722597772749938,-0.12783172726631165,-0.04687163606286049,-0.38242992758750916,0.7984662652015686,-0.45250412821769714,9.926360130310059
1713722597782749938,-0.09906959533691406,-0.049002163112163544,-0.38669100403785706,0.5159504413604736,-1.3407529592514038,11.549629211425781
1713722597791749938,-0.003195793367922306,0.0,-0.3856257200241089,0.21188685297966003,-1.8770540952682495,12.782642364501953
1713722597801749938,0.0884169489145279,0.047936901450157166,-0.38669100403785706,0.08499415963888168,-1.3180080652236938,10.521319389343262
1713722597811749938,0.14594122767448425,0.06604639440774918,-0.3856257200241089,0.6883329749107361,-0.5351040959358215,8.90882396697998
1713722597820749938,0.24820661544799805,0.034088462591171265,-0.4037352204322815,1.1312602758407593,0.12689268589019775,8.42040729522705
1713722597830749938,0.20133498311042786,0.024501081556081772,-0.41119205951690674,0.8236053586006165,0.304063618183136,8.671798706054688
1713722597840749938,0.08948221057653427,0.019174760207533836,-0.4207794666290283,0.2801215946674347,-0.21188685297966003,9.271546363830566
1713722597849749938,-0.07456851005554199,0.02130528911948204,-0.42930155992507935,0.11611878126859665,-0.48123452067375183,9.334992408752441
1713722597859749938,-0.2045307755470276,0.015978965908288956,-0.43782368302345276,0.2561795711517334,-0.16400282084941864,9.014169692993164
1713722597869749938,-0.258859246969223,0.003195793367922306,-0.4399542212486267,0.4692635238170624,-0.04429272934794426,9.106346130371094
1713722597879749938,-0.1619201898574829,-0.04367584362626076,-0.4495415985584259,0.5111620426177979,-0.424970805644989,9.600749015808105
1713722597888749938,-0.1257012039422989,-0.06604639440774918,-0.44847631454467773,0.040701426565647125,-1.2916717529296875,11.894393920898438
1713722597898749938,0.00532632227987051,-0.009587380103766918,-0.434627890586853,-0.3770867586135864,-1.7800889015197754,12.860454559326172
1713722597908749938,0.09480853378772736,0.055393751710653305,-0.4324973523616791,-0.05386953800916672,-1.1264718770980835,10.614692687988281
1713722597918749938,0.16511598229408264,0.10865697264671326,-0.4229099750518799,0.4034229815006256,-0.24181437492370605,9.065644264221191
1713722597927749938,0.2269013226032257,0.08096009492874146,-0.436758428812027,0.6200982332229614,0.272938996553421,8.030152320861816
1713722597937749938,0.17470337450504303,0.03941478580236435,-0.445280522108078,0.6332663297653198,0.24181437492370605,8.161833763122559
1713722597946749938,0.05432848632335663,-0.012783173471689224,-0.45699843764305115,0.19393032789230347,-0.27413609623908997,9.399635314941406
1713722597957749938,-0.09587380290031433,-0.034088462591171265,-0.4591289758682251,-0.010773907415568829,-0.5446808934211731,9.953893661499023
1713722597966749938,-0.20985709130764008,-0.03302319720387459,-0.46658581495285034,0.15322890877723694,-0.20231004059314728,9.170989036560059
1713722597976749938,-0.24820661544799805,-0.009587380103766918,-0.46232476830482483,0.395043283700943,-0.023942016065120697,8.87171459197998
1713722597985749938,-0.13848437368869781,-0.017044231295585632,-0.4697816073894501,0.4728548228740692,-0.4010287821292877,9.81143856048584
1713722597995749938,-0.07563377171754837,-0.013848437927663326,-0.4633900225162506,0.05147533491253853,-1.1073182821273804,11.489773750305176
1713722598005749938,0.013848437927663326,0.012783173471689224,-0.4538026452064514,-0.2885012924671173,-1.4879963397979736,12.198457717895508
1713722598015749938,0.09800432622432709,0.06924218684434891,-0.44634580612182617,-0.14484919607639313,-0.9672574996948242,10.578780174255371
1713722598024749938,0.1342233121395111,0.10546118021011353,-0.4410194754600525,0.26815059781074524,-0.07182604819536209,8.543708801269531
1713722598034749938,0.16085493564605713,0.08522115647792816,-0.4442152678966522,0.48602294921875,0.36990416049957275,8.106766700744629
1713722598044749938,0.1299622654914856,0.04261057823896408,-0.44847631454467773,0.30885201692581177,0.1975216418504715,8.942342758178711
1713722598053749938,0.03302319720387459,0.002130528911948204,-0.4506068527698517,-0.09457096457481384,-0.2861070930957794,9.646238327026367
1713722598063749938,-0.09906959533691406,-0.014913702383637428,-0.4538026452064514,-0.34835633635520935,-0.4572925269603729,9.77672290802002
1713722598073749938,-0.18429075181484222,-0.017044231295585632,-0.45593318343162537,-0.12330138683319092,-0.1412578970193863,9.208099365234375
1713722598082749938,-0.18429075181484222,-0.019174760207533836,-0.45593318343162537,0.25019407272338867,-0.016759412363171577,9.457096099853516
1713722598092749938,-0.1065264418721199,-0.03195793181657791,-0.4548678994178772,-0.040701426565647125,-0.4572925269603729,10.527304649353027
1713722598102749938,-0.04580637067556381,-0.022370552644133568,-0.4442152678966522,-0.6021417379379272,-1.2713210582733154,11.7232084274292
1713722598112749938,0.04687163606286049,0.004261057823896408,-0.4314320981502533,-0.729034423828125,-1.42454993724823,11.75672721862793
1713722598121749938,0.11078750342130661,0.049002163112163544,-0.4122573435306549,-0.272938996553421,-0.39145198464393616,9.612719535827637
1713722598131749938,0.1906823366880417,0.07030745595693588,-0.40160468220710754,0.304063618183136,0.6009446382522583,8.037335395812988
1713722598141749938,0.19387812912464142,0.07989483326673508,-0.3941478431224823,-0.11851298063993454,0.5518634915351868,8.032546997070312
1713722598151749938,0.09800432622432709,0.07456851005554199,-0.38242992758750916,-0.6572083830833435,-0.090979665517807,9.017760276794434
1713722598160749938,-0.05965480953454971,0.03834952041506767,-0.37816888093948364,-0.6045359373092651,-0.6236895322799683,10.471040725708008
1713722598170749938,-0.1810949593782425,-0.003195793367922306,-0.3675162196159363,-0.5949591398239136,-0.4489127993583679,10.307038307189941
1713722598180749938,-0.1992044448852539,-0.04261057823896408,-0.3536677956581116,-0.6763619780540466,0.09217676520347595,9.017760276794434
1713722598189749938,-0.13315805792808533,-0.0649811327457428,-0.34514567255973816,-0.6416460275650024,0.18555063009262085,8.559270858764648
1713722598199749938,-0.07243797928094864,-0.03515372797846794,-0.3291667103767395,-0.5853822827339172,-0.1759738177061081,9.671377182006836
1713722598209749938,-0.009587380103766918,0.037284255027770996,-0.3099919557571411,-0.8523358106613159,-0.7158662676811218,11.33893871307373
1713722598218749938,0.05432848632335663,0.08948221057653427,-0.2908172011375427,-1.1743558645248413,-0.9457096457481384,11.529277801513672
1713722598228749938,0.10120011866092682,0.0649811327457428,-0.2737729549407959,-1.159990668296814,-0.5566518902778625,10.035296440124512
1713722598238749938,0.12783172726631165,0.015978965908288956,-0.2545982003211975,-0.6009446382522583,-0.25498247146606445,9.566032409667969
1713722598247749938,0.1619201898574829,-0.019174760207533836,-0.25353294610977173,-0.4704606235027313,-0.29209259152412415,9.481039047241211
1713722598257749938,0.05965480953454971,-0.006391586735844612,-0.2364886999130249,-0.7469909191131592,-0.4345476031303406,9.001001358032227
1713722598267749938,-0.06604639440774918,0.013848437927663326,-0.22370553016662598,-0.7493851184844971,-0.47644612193107605,9.628281593322754
1713722598277749938,-0.1299622654914856,0.03302319720387459,-0.20240023732185364,-0.7362170219421387,-0.06464344263076782,9.26675796508789
1713722598286749938,-0.08096009492874146,0.015978965908288956,-0.18855179846286774,-0.6763619780540466,0.27054479718208313,8.497021675109863
1713722598296749938,-0.052197955548763275,-0.013848437927663326,-0.17470337450504303,-0.6847416758537292,0.07900865375995636,8.927977561950684
1713722598306749938,-0.01065264455974102,-0.02556634694337845,-0.16085493564605713,-0.7254431247711182,-0.4297592043876648,10.599130630493164
1713722598315749938,-0.023435818031430244,0.003195793367922306,-0.14274543523788452,-0.849941611289978,-1.0426747798919678,11.981781959533691
1713722598325749938,0.014913702383637428,0.020240023732185364,-0.12783172726631165,-1.0666168928146362,-1.1779471635818481,11.341333389282227
1713722598335749938,0.06072007119655609,0.008522115647792816,-0.11185276508331299,-1.0989385843276978,-0.42018237709999084,9.218873023986816
1713722598345749938,0.12676647305488586,-0.002130528911948204,-0.09587380290031433,-0.7326257228851318,0.3387795388698578,8.483853340148926
1713722598355749938,0.2045307755470276,0.008522115647792816,-0.08628641813993454,-0.4991910457611084,0.5518634915351868,8.449137687683105
1713722598364749938,0.11930961906909943,0.041545312851667404,-0.06817692518234253,-0.6248866319656372,0.10055647045373917,8.803479194641113
1713722598374749938,-0.04261057823896408,0.05645901337265968,-0.06072007119655609,-0.6416460275650024,-0.8690952062606812,10.721235275268555
1713722598383749938,-0.1949433982372284,0.04580637067556381,-0.052197955548763275,-0.6200982332229614,-1.4927847385406494,11.558008193969727
1713722598393749938,-0.12463594228029251,-0.037284255027770996,-0.05006742849946022,-0.606930136680603,-0.8391676545143127,9.99459457397461
1713722598403749938,-0.07776430249214172,-0.10013485699892044,-0.03834952041506767,-0.7864952683448792,0.28730419278144836,8.078036308288574
1713722598413749938,0.11185276508331299,-0.09480853378772736,-0.027696875855326653,-0.629675030708313,0.47405192255973816,8.810662269592285
1713722598422749938,0.16937704384326935,-0.006391586735844612,-0.01810949482023716,-0.27054479718208313,-0.0347159244120121,10.104727745056152
1713722598432749938,0.10865697264671326,0.08522115647792816,-0.006391586735844612,-0.36990416049957275,-0.6967126727104187,10.36689281463623
1713722598442749938,-0.03515372797846794,0.13741911947727203,0.01065264455974102,-0.34835633635520935,-1.1959037780761719,10.858901977539062
1713722598451749938,-0.08415588736534119,0.10013485699892044,0.01065264455974102,-0.2861070930957794,-0.9074024558067322,11.195286750793457
1713722598461749938,-0.004261057823896408,0.013848437927663326,0.017044231295585632,-0.6344634294509888,0.1604115068912506,8.548497200012207
1713722598471749938,0.034088462591171265,-0.03941478580236435,0.03302319720387459,-0.9481038451194763,0.7015010714530945,7.656656742095947
1713722598480749938,0.15446333587169647,-0.03302319720387459,0.044741105288267136,-0.8798691034317017,0.5865793824195862,8.644265174865723
1713722598490749938,0.04580637067556381,0.014913702383637428,0.05965480953454971,-0.7805097699165344,-0.16400282084941864,9.837774276733398
1713722598500749938,-0.09374327212572098,0.0511326938867569,0.06711165606975555,-0.5865793824195862,-1.40180504322052,12.077549934387207
1713722598510749938,-0.13848437368869781,0.02130528911948204,0.06391586363315582,-0.5374982953071594,-1.5167267322540283,11.862071990966797
1713722598519749938,-0.04367584362626076,-0.06711165606975555,0.06711165606975555,-0.8020575642585754,-0.37229835987091064,9.029731750488281
1713722598529749938,0.023435818031430244,-0.1065264418721199,0.08735168725252151,-0.9241618514060974,0.35673603415489197,8.374917030334473
1713722598539749938,0.21624867618083954,-0.07030745595693588,0.09800432622432709,-0.9253589510917664,0.43335050344467163,8.645462036132812
1713722598549749938,0.12889699637889862,0.029827404767274857,0.1257012039422989,-0.9421183466911316,0.03711012750864029,9.174580574035645
1713722598559749938,0.017044231295585632,0.10120011866092682,0.14913702011108398,-0.7433996200561523,-0.773327112197876,11.109095573425293
1713722598568749938,-0.11398329585790634,0.12144014239311218,0.1576591432094574,-0.6607996821403503,-0.9768342971801758,10.518924713134766
1713722598578749938,-0.09054747968912125,0.05006742849946022,0.15872439742088318,-0.8056488633155823,-0.34596213698387146,9.373299598693848
1713722598587749938,-0.052197955548763275,-0.03302319720387459,0.1672465205192566,-1.0474631786346436,0.40462008118629456,7.794323444366455
1713722598597749938,0.04048004746437073,-0.07030745595693588,0.18002969026565552,-0.8212111592292786,0.3232172131538391,8.416815757751465
1713722598607749938,0.06285060197114944,-0.044741105288267136,0.18429075181484222,-0.5937620401382446,-0.30286651849746704,10.328585624694824
1713722598617749938,-0.029827404767274857,0.007456851191818714,0.19281286001205444,-0.5327098965644836,-1.058237075805664,11.170147895812988
1713722598626749938,-0.1342233121395111,0.023435818031430244,0.19174760580062866,0.008379706181585789,-1.665167212486267,12.622231483459473
1713722598636749938,-0.01810949482023716,-0.04367584362626076,0.18642127513885498,-0.19033902883529663,-0.8667010068893433,10.310629844665527
1713722598645749938,0.008522115647792816,-0.058589544147253036,0.2034655064344406,-1.0845733880996704,0.17956513166427612,7.996633529663086
1713722598655749938,0.21092236042022705,-0.030892668291926384,0.2183792144060135,-1.1300631761550903,0.47165772318840027,7.848193168640137
1713722598665749938,0.14700649678707123,0.044741105288267136,0.24288028478622437,-0.727837324142456,0.22505494952201843,8.789113998413086
1713722598675749938,0.0511326938867569,0.08415588736534119,0.25779399275779724,-0.7529764175415039,-0.6248866319656372,10.712855339050293
1713722598684749938,-0.09906959533691406,0.0788295716047287,0.2652508318424225,-0.6488286256790161,-0.9804255962371826,10.399214744567871
1713722598694749938,-0.15020228922367096,0.007456851191818714,0.2631203234195709,-0.48123452067375183,-0.6703764796257019,10.055646896362305
1713722598704749938,-0.10972223430871964,-0.07776430249214172,0.2684466242790222,-0.9397241473197937,-0.14844051003456116,8.941145896911621
1713722598714749938,-0.058589544147253036,-0.09587380290031433,0.2833603322505951,-1.070208191871643,-0.20709843933582306,9.309853553771973
1713722598723749938,0.02876213937997818,-0.05006742849946022,0.287621408700943,-0.569819986820221,-0.7062894701957703,10.448295593261719
1713722598733749938,-0.014913702383637428,0.02556634694337845,0.29507824778556824,-0.19153612852096558,-1.1001356840133667,11.022904396057129
1713722598743749938,0.05006742849946022,0.03195793181657791,0.287621408700943,-0.09816227108240128,-0.9923965930938721,10.687716484069824
1713722598752749938,0.06285060197114944,0.014913702383637428,0.29401299357414246,-0.42377370595932007,-0.3447650372982025,9.239224433898926
1713722598762749938,0.14700649678707123,0.003195793367922306,0.3004045784473419,-0.7972691655158997,0.06224924325942993,8.78073501586914
1713722598772749938,0.12676647305488586,0.02130528911948204,0.30786141753196716,-0.7422025203704834,0.0035913025494664907,9.265560150146484
1713722598782749938,0.049002163112163544,0.023435818031430244,0.31212249398231506,-0.295683890581131,-0.3687070608139038,9.90481185913086
1713722598791749938,-0.05645901337265968,0.00532632227987051,0.30892667174339294,-0.002394201699644327,-0.5147533416748047,9.487024307250977
1713722598801749938,-0.13528858125209808,-0.01810949482023716,0.30466562509536743,-0.28131869435310364,-0.04429272934794426,9.058462142944336
1713722598811749938,-0.08522115647792816,-0.03195793181657791,0.3067961633205414,-0.5183446407318115,0.3687070608139038,8.628703117370605
1713722598820749938,-0.07243797928094864,-0.037284255027770996,0.30466562509536743,-0.5039794445037842,-0.06464344263076782,9.301473617553711
1713722598830749938,-0.04367584362626076,-0.037284255027770996,0.3025350868701935,-0.16519992053508759,-1.1420341730117798,11.656170845031738
1713722598840749938,-0.022370552644133568,-0.058589544147253036,0.2886866629123688,0.6871358752250671,-1.9596540927886963,12.595894813537598
1713722598850749938,-0.007456851191818714,-0.07776430249214172,0.2695119082927704,0.9241618514060974,-1.6101006269454956,11.028889656066895
1713722598860749938,0.0649811327457428,-0.04367584362626076,0.260989785194397,0.3124433159828186,-0.5255272388458252,9.153033256530762
1713722598869749938,0.17044231295585632,0.052197955548763275,0.2652508318424225,-0.5841851830482483,0.5997475385665894,8.142680168151855
1713722598878749938,0.2130528837442398,0.12676647305488586,0.27483823895454407,-0.44651859998703003,0.7613561153411865,7.993042469024658
1713722598888749938,0.13528858125209808,0.11291802674531937,0.2641855776309967,0.33039984107017517,-0.16400282084941864,9.63067626953125
1713722598898749938,0.019174760207533836,0.041545312851667404,0.24501082301139832,0.5159504413604736,-0.9157821536064148,10.441113471984863
1713722598908749938,-0.12889699637889862,-0.05752427875995636,0.22583605349063873,0.40222588181495667,-0.711077868938446,9.806650161743164
1713722598917749938,-0.1906823366880417,-0.1022653877735138,0.21518342196941376,0.1843535304069519,0.010773907415568829,9.314641952514648
1713722598927749938,-0.13635385036468506,-0.10865697264671326,0.20666129887104034,0.09816227108240128,0.1280897855758667,8.815450668334961
1713722598937749938,-0.08096009492874146,-0.08628641813993454,0.1992044448852539,0.3579331338405609,-0.4537012279033661,9.825803756713867
1713722598947749938,-0.020240023732185364,-0.049002163112163544,0.18216021358966827,0.8930371999740601,-1.1683703660964966,11.403582572937012
1713722598956749938,0.03621898964047432,-0.009587380103766918,0.15978966653347015,1.0989385843276978,-1.215057373046875,11.377245903015137
1713722598967749938,0.07989483326673508,0.029827404767274857,0.1438107043504715,0.712274968624115,-0.6560112833976746,10.096348762512207
1713722598976749938,0.12250541150569916,0.06604639440774918,0.14061491191387177,0.17717091739177704,-0.1149216815829277,9.099163055419922
1713722598985749938,0.14487595856189728,0.07669904083013535,0.1342233121395111,0.12330138683319092,0.038307227194309235,8.889670372009277
1713722598995749938,0.10013485699892044,0.04580637067556381,0.12357067316770554,0.35314473509788513,-0.25498247146606445,9.376891136169434
1713722599005749938,0.014913702383637428,-0.019174760207533836,0.10546118021011353,0.5027823448181152,-0.5650315880775452,9.877279281616211
1713722599015749938,-0.0649811327457428,-0.07563377171754837,0.0884169489145279,0.5841851830482483,-0.4453215003013611,9.585186004638672
1713722599025749938,-0.09693906456232071,-0.08948221057653427,0.07669904083013535,0.47165772318840027,-0.033518824726343155,8.831012725830078
1713722599034749938,-0.08948221057653427,-0.049002163112163544,0.07137271761894226,0.29209259152412415,0.1256955862045288,8.732851028442383
1713722599044749938,-0.06711165606975555,0.013848437927663326,0.06817692518234253,0.31124621629714966,-0.2621650695800781,9.916783332824707
1713722599053749938,0.00532632227987051,0.03302319720387459,0.055393751710653305,0.41778817772865295,-1.0187327861785889,11.537657737731934
1713722599063749938,0.041545312851667404,0.001065264455974102,0.04580637067556381,0.4453215003013611,-1.482010841369629,11.9398832321167
1713722599073749938,0.0649811327457428,-0.03195793181657791,0.034088462591171265,0.4644751250743866,-1.0330979824066162,10.903194427490234
1713722599083749938,0.15233281254768372,-0.027696875855326653,0.01810949482023716,0.355538934469223,0.047884032130241394,8.516175270080566
1713722599092749938,0.14700649678707123,0.02130528911948204,0.015978965908288956,0.014365210197865963,0.5961562395095825,7.405265808105469
1713722599102749938,0.10120011866092682,0.055393751710653305,0.015978965908288956,-0.09935937076807022,0.2777273952960968,8.580819129943848
1713722599112749938,-0.002130528911948204,0.047936901450157166,0.012783173471689224,0.08978256583213806,-0.4141968786716461,9.856927871704102
1713722599122749938,-0.1342233121395111,0.012783173471689224,0.008522115647792816,0.07422025501728058,-0.9085995554924011,10.74876880645752
1713722599131749938,-0.14487595856189728,-0.06072007119655609,0.003195793367922306,-0.11252747476100922,-0.7445967197418213,10.632649421691895
1713722599141749938,-0.09800432622432709,-0.12250541150569916,-0.003195793367922306,-0.13527239859104156,-0.061052143573760986,9.05367374420166
1713722599151749938,0.009587380103766918,-0.11078750342130661,-0.001065264455974102,-0.031124621629714966,0.34835633635520935,8.81664752960205
1713722599160749938,0.11078750342130661,-0.020240023732185364,0.006391586735844612,-0.03232172131538391,0.152031809091568,9.500192642211914
1713722599170749938,0.0788295716047287,0.08202536404132843,0.015978965908288956,-0.03232172131538391,-0.5243301391601562,10.055646896362305
1713722599180749938,-0.03302319720387459,0.13528858125209808,0.02130528911948204,0.15921440720558167,-1.4748282432556152,11.647790908813477
1713722599190749938,-0.002130528911948204,0.06817692518234253,0.003195793367922306,0.09935937076807022,-1.479616641998291,11.596315383911133
1713722599199749938,0.015978965908288956,-0.034088462591171265,-0.001065264455974102,-0.29209259152412415,-0.3076549172401428,9.090784072875977
1713722599209749938,0.11504855751991272,-0.08628641813993454,-0.002130528911948204,-0.27054479718208313,0.6105214357376099,8.31865406036377
1713722599219749938,0.19813919067382812,-0.06604639440774918,-0.003195793367922306,-0.03711012750864029,0.6596025824546814,8.487444877624512
1713722599228749938,0.12144014239311218,-0.019174760207533836,-0.002130528911948204,-0.02274491637945175,0.07182604819536209,8.542511940002441
1713722599238749938,-0.04687163606286049,0.027696875855326653,-0.003195793367922306,0.05386953800916672,-0.8271966576576233,10.663774490356445
1713722599248749938,-0.18748654425144196,0.04580637067556381,-0.004261057823896408,0.008379706181585789,-1.2318167686462402,11.230003356933594
1713722599257749938,-0.1992044448852539,0.017044231295585632,-0.00532632227987051,-0.038307227194309235,-0.7529764175415039,10.508151054382324
1713722599267749938,-0.058589544147253036,-0.06072007119655609,-0.008522115647792816,-0.18914192914962769,0.32441431283950806,8.324639320373535
1713722599277749938,0.044741105288267136,-0.07137271761894226,0.004261057823896408,-0.2669534981250763,0.5793967843055725,8.651447296142578
1713722599286749938,0.2045307755470276,-0.03302319720387459,0.003195793367922306,-0.12210428714752197,0.0347159244120121,9.898826599121094
1713722599296749938,0.09906959533691406,0.047936901450157166,0.013848437927663326,-0.019153613597154617,-0.7433996200561523,10.33098030090332
1713722599306749938,-0.055393751710653305,0.09161274135112762,0.008522115647792816,0.21308395266532898,-1.6148890256881714,11.973402976989746
1713722599316749938,-0.11398329585790634,0.058589544147253036,-0.007456851191818714,0.25977087020874023,-1.2509703636169434,11.5436429977417
1713722599325749938,-0.02130528911948204,-0.02876213937997818,-0.017044231295585632,0.026336219161748886,0.12090718746185303,8.134300231933594
1713722599335749938,0.02556634694337845,-0.07137271761894226,-0.011717909015715122,-0.424970805644989,0.6739677786827087,7.577648162841797
1713722599345749938,0.1768338978290558,-0.05326322093605995,-0.007456851191818714,-0.4489127993583679,0.3663128614425659,8.881291389465332
1713722599355749938,0.07137271761894226,0.014913702383637428,0.002130528911948204,-0.0694318488240242,-0.31842881441116333,9.645041465759277
1713722599364749938,-0.058589544147253036,0.06924218684434891,0.006391586735844612,0.0586579404771328,-1.235408067703247,11.70046329498291
1713722599374749938,-0.14168016612529755,0.06711165606975555,0.002130528911948204,0.10654197633266449,-1.2401964664459229,11.802217483520508
1713722599384749938,-0.020240023732185364,-0.008522115647792816,-0.00532632227987051,-0.1711854189634323,-0.0933738648891449,8.995016098022461
1713722599393749938,0.002130528911948204,-0.0649811327457428,-0.001065264455974102,-0.416591078042984,0.6775590777397156,7.6985554695129395
1713722599403749938,0.19707392156124115,-0.07137271761894226,-0.003195793367922306,-0.28730419278144836,0.5566518902778625,8.08162784576416
1713722599413749938,0.0884169489145279,-0.004261057823896408,0.004261057823896408,-0.20350714027881622,-0.25498247146606445,9.798270225524902
1713722599423749938,-0.03302319720387459,0.05432848632335663,0.003195793367922306,-0.040701426565647125,-1.404199242591858,12.145785331726074
1713722599432749938,-0.16937704384326935,0.06178533658385277,-0.002130528911948204,0.24660277366638184,-1.6053122282028198,11.737573623657227
1713722599442749938,-0.052197955548763275,-0.024501081556081772,-0.017044231295585632,0.22864626348018646,-0.46806642413139343,9.509769439697266
1713722599452749938,-0.023435818031430244,-0.07776430249214172,-0.007456851191818714,-0.14245499670505524,0.6248866319656372,7.983465671539307
1713722599462749938,0.21092236042022705,-0.08415588736534119,-0.006391586735844612,-0.28371289372444153,0.6548141837120056,7.9176249504089355
1713722599471749938,0.15659387409687042,-0.006391586735844612,0.00532632227987051,-0.09935937076807022,-0.013168109580874443,9.330204010009766
1713722599481749938,0.0649811327457428,0.058589544147253036,0.009587380103766918,0.05267243832349777,-0.9385270476341248,11.287464141845703
1713722599490749938,-0.10865697264671326,0.09800432622432709,0.006391586735844612,0.18315643072128296,-1.43532395362854,11.115080833435059
1713722599500749938,-0.17363810539245605,0.07030745595693588,-0.004261057823896408,0.1867477297782898,-0.93254154920578,11.371260643005371
1713722599510749938,-0.04048004746437073,-0.011717909015715122,-0.009587380103766918,-0.19033902883529663,0.3998316824436188,8.11634349822998
1713722599519749938,0.012783173471689224,-0.04261057823896408,0.001065264455974102,-0.5219359397888184,0.8259995579719543,7.210138320922852
1713722599529749938,0.17789916694164276,-0.030892668291926384,0.002130528911948204,-0.4225766062736511,0.3387795388698578,8.90762710571289
1713722599539749938,0.058589544147253036,0.034088462591171265,0.011717909015715122,-0.10893617570400238,-0.6548141837120056,10.54765510559082
1713722599548749938,-0.08309062570333481,0.07456851005554199,0.008522115647792816,0.14724339544773102,-1.790862798690796,12.530054092407227
1713722599558749938,-0.1203748807311058,0.04048004746437073,-0.004261057823896408,0.1867477297782898,-1.5095441341400146,11.766304016113281
1713722599569749938,-0.014913702383637428,-0.049002163112163544,-0.011717909015715122,-0.07900865375995636,-0.14245499670505524,8.743624687194824
1713722599578749938,0.07243797928094864,-0.08522115647792816,-0.004261057823896408,-0.3543418347835541,0.5638344883918762,8.251616477966309
1713722599588749938,0.2652508318424225,-0.055393751710653305,-0.00532632227987051,-0.21428105235099792,0.5602431893348694,8.586804389953613
1713722599597749938,0.18216021358966827,0.023435818031430244,0.003195793367922306,0.005985504016280174,0.10893617570400238,8.613140106201172
1713722599607749938,0.04580637067556381,0.07030745595693588,0.00532632227987051,0.07900865375995636,-0.833182156085968,10.854113578796387
1713722599617749938,-0.11824434995651245,0.0884169489145279,0.0,0.05985504016280174,-1.1336544752120972,10.58117389678955
1713722599626749938,-0.2173139452934265,0.07137271761894226,-0.001065264455974102,-0.02513911761343479,-0.5351040959358215,10.278307914733887
1713722599636749938,-0.07776430249214172,-0.012783173471689224,-0.008522115647792816,-0.27054479718208313,0.42856210470199585,8.3892822265625
1713722599646749938,-0.04580637067556381,-0.049002163112163544,-0.001065264455974102,-0.5494692921638489,0.5602431893348694,8.197746276855469
1713722599655749938,0.11930961906909943,-0.05326322093605995,-0.00532632227987051,-0.4513069987297058,-0.08140285313129425,9.75517463684082
1713722599665749938,0.029827404767274857,0.007456851191818714,0.002130528911948204,0.09457096457481384,-1.181538462638855,11.447875022888184
1713722599675749938,-0.06924218684434891,0.04048004746437073,-0.01065264455974102,0.28371289372444153,-2.0219032764434814,13.168108940124512
1713722599685749938,0.01065264455974102,0.00532632227987051,-0.02130528911948204,0.08140285313129425,-1.0630255937576294,10.48061752319336
1713722599694749938,0.03941478580236435,-0.03834952041506767,-0.017044231295585632,-0.16519992053508759,0.22625206410884857,7.983465671539307
1713722599704749938,0.222640261054039,-0.0511326938867569,-0.017044231295585632,-0.29448679089546204,0.652419924736023,7.893682956695557
1713722599714749938,0.22796659171581268,-0.001065264455974102,-0.008522115647792816,-0.10534487664699554,0.5781996846199036,8.833407402038574
1713722599724749938,0.16085493564605713,0.04367584362626076,0.0,0.05147533491253853,-0.028730420395731926,9.32780933380127
1713722599733749938,-0.04580637067556381,0.06178533658385277,-0.006391586735844612,0.10295066982507706,-0.9026139974594116,10.462660789489746
1713722599743749938,-0.19600865244865417,0.04687163606286049,-0.013848437927663326,-0.1304839849472046,-0.9385270476341248,10.911574363708496
1713722599752749938,-0.17257283627986908,-0.014913702383637428,-0.012783173471689224,-0.20350714027881622,-0.10893617570400238,9.20091724395752
1713722599762749938,-0.09374327212572098,-0.08948221057653427,-0.01810949482023716,-0.3974374830722809,0.4884171485900879,8.028955459594727
1713722599772749938,0.029827404767274857,-0.0884169489145279,-0.01065264455974102,-0.38067805767059326,0.2537853717803955,9.154230117797852
1713722599782749938,0.09693906456232071,-0.026631610468029976,-0.009587380103766918,-0.047884032130241394,-0.50876784324646,11.09113883972168
1713722599791749938,0.04367584362626076,0.05326322093605995,-0.006391586735844612,0.07661445438861847,-1.1671732664108276,11.273098945617676
1713722599801749938,-0.03834952041506767,0.08202536404132843,-0.011717909015715122,0.17717091739177704,-1.3886369466781616,12.157755851745605
1713722599811749938,0.06817692518234253,0.017044231295585632,-0.02130528911948204,0.013168109580874443,-0.42616790533065796,9.831789016723633
1713722599820749938,0.07350324839353561,-0.03195793181657791,-0.013848437927663326,-0.22266075015068054,0.447715699672699,8.04930591583252
1713722599830749938,0.22370553016662598,-0.055393751710653305,-0.01810949482023716,-0.24061726033687592,0.5099649429321289,8.107963562011719
1713722599840749938,0.11930961906909943,-0.013848437927663326,-0.007456851191818714,0.002394201699644327,0.0802057534456253,8.607154846191406
1713722599850749938,-0.014913702383637428,0.01810949482023716,-0.013848437927663326,0.12330138683319092,-0.8547300100326538,11.08994197845459
1713722599859749938,-0.14913702011108398,0.03941478580236435,-0.01810949482023716,0.0,-1.1013327836990356,10.78587818145752
1713722599869749938,-0.14700649678707123,0.008522115647792816,-0.020240023732185364,-0.08619125932455063,-0.46567222476005554,9.858125686645508
1713722599879749938,-0.04048004746437073,-0.05645901337265968,-0.020240023732185364,-0.31842881441116333,0.4345476031303406,8.360551834106445
1713722599889749938,0.07350324839353561,-0.06817692518234253,-0.012783173471689224,-0.34835633635520935,0.4692635238170624,8.880093574523926
1713722599898749938,0.1619201898574829,-0.023435818031430244,-0.012783173471689224,-0.13766659796237946,-0.19632454216480255,10.38844108581543
1713722599908749938,0.0788295716047287,0.0511326938867569,-0.004261057823896408,-0.05626373738050461,-0.8834604024887085,10.647014617919922
1713722599918749938,-0.07456851005554199,0.08948221057653427,-0.006391586735844612,0.07661445438861847,-1.4484920501708984,11.5436429977417
1713722599927749938,-0.024501081556081772,0.03302319720387459,-0.020240023732185364,0.008379706181585789,-0.8188169598579407,10.447098731994629
1713722599937749938,0.01065264455974102,-0.037284255027770996,-0.01810949482023716,-0.3471592366695404,0.4513069987297058,7.983465671539307
1713722599947749938,0.14594122767448425,-0.07137271761894226,-0.015978965908288956,-0.3363853394985199,0.7422025203704834,7.862558364868164
1713722599956749938,0.1619201898574829,-0.03834952041506767,-0.011717909015715122,-0.05386953800916672,0.24420857429504395,9.493009567260742
1713722599966749938,0.07243797928094864,0.014913702383637428,-0.006391586735844612,-0.017956512048840523,-0.45489832758903503,10.323797225952148
1713722599976749938,-0.09374327212572098,0.058589544147253036,-0.006391586735844612,0.019153613597154617,-1.1288660764694214,10.927136421203613
1713722599986749938,-0.17257283627986908,0.04687163606286049,-0.01065264455974102,0.0802057534456253,-1.0223240852355957,12.009315490722656
1713722599996489036,-0.02556634694337845,-0.03195793181657791,-0.013848437927663326,-0.104147769510746,0.07302314788103104,8.949525833129883
1713722600005489036,0.00532632227987051,-0.07456851005554199,-0.007456851191818714,-0.3902548849582672,0.6931213736534119,7.557297706604004
1713722600015489036,0.2087918221950531,-0.0649811327457428,-0.008522115647792816,-0.2908954918384552,0.5015852451324463,8.628703117370605
1713722600024489036,0.10546118021011353,0.011717909015715122,0.0,-0.07062894850969315,-0.25498247146606445,9.949105262756348
1713722600034489036,-0.01810949482023716,0.06924218684434891,-0.002130528911948204,-0.047884032130241394,-1.3718775510787964,12.258312225341797
1713722600044489036,-0.13741911947727203,0.07350324839353561,-0.008522115647792816,0.16519992053508759,-1.4676456451416016,11.763910293579102
1713722600054489036,-0.029827404767274857,-0.012783173471689224,-0.023435818031430244,-0.005985504016280174,-0.25258827209472656,9.17697525024414
1713722600063489036,-0.00532632227987051,-0.07776430249214172,-0.017044231295585632,-0.35913026332855225,0.690727174282074,7.767987251281738
1713722600073489036,0.20985709130764008,-0.08948221057653427,-0.019174760207533836,-0.24061726033687592,0.7589619159698486,7.767987251281738
1713722600083489036,0.13315805792808533,-0.022370552644133568,-0.009587380103766918,-0.013168109580874443,0.13168108463287354,9.525331497192383
1713722600092489036,0.04367584362626076,0.03302319720387459,-0.008522115647792816,0.08140285313129425,-0.7793126106262207,11.33893871307373
1713722600102489036,-0.1161138266324997,0.07563377171754837,-0.004261057823896408,-0.09935937076807022,-0.9516951441764832,10.54406452178955
1713722600112489036,-0.14913702011108398,0.05645901337265968,-0.006391586735844612,-0.13766659796237946,-0.48961424827575684,10.959458351135254
1713722600122489036,-0.026631610468029976,-0.024501081556081772,-0.011717909015715122,-0.18555063009262085,0.43335050344467163,8.170212745666504
1713722600131489036,0.02130528911948204,-0.06711165606975555,-0.004261057823896408,-0.3519476354122162,0.5865793824195862,7.77756404876709
1713722600141489036,0.14594122767448425,-0.058589544147253036,-0.006391586735844612,-0.3076549172401428,0.04189852997660637,9.691728591918945
1713722600150489036,0.034088462591171265,0.007456851191818714,0.004261057823896408,-0.24420857429504395,-0.6871358752250671,10.757147789001465
1713722600160489036,-0.09054747968912125,0.058589544147253036,0.008522115647792816,-0.08858545869588852,-1.4748282432556152,12.194866180419922
1713722600170489036,-0.058589544147253036,0.024501081556081772,-0.002130528911948204,-0.014365210197865963,-1.0007762908935547,10.617087364196777
1713722600180489036,0.011717909015715122,-0.047936901450157166,-0.004261057823896408,-0.2908954918384552,0.2932896912097931,7.9858598709106445
1713722600189489036,0.14594122767448425,-0.08096009492874146,-0.003195793367922306,-0.25977087020874023,0.8966284990310669,7.846995830535889
1713722600199489036,0.22157500684261322,-0.058589544147253036,0.0,-0.019153613597154617,0.5734112858772278,9.254786491394043
1713722600209489036,0.1299622654914856,0.0,0.009587380103766918,-0.0694318488240242,-0.24181437492370605,10.029311180114746
1713722600218489036,-0.05326322093605995,0.04580637067556381,0.011717909015715122,0.02513911761343479,-1.1552022695541382,11.210848808288574
1713722600228489036,-0.19600865244865417,0.06924218684434891,0.01065264455974102,0.04668693244457245,-1.0869675874710083,10.764330863952637
1713722600238489036,-0.15233281254768372,0.02876213937997818,0.007456851191818714,-0.07062894850969315,-0.040701426565647125,9.026140213012695
1713722600248489036,-0.04261057823896408,-0.03941478580236435,0.004261057823896408,-0.43335050344467163,0.8307879567146301,7.489062786102295
1713722600257489036,0.0788295716047287,-0.05965480953454971,0.009587380103766918,-0.29807811975479126,0.5422866940498352,8.862137794494629
1713722600267489036,0.1257012039422989,-0.03302319720387459,0.006391586735844612,0.06823474913835526,-0.39145198464393616,11.21563720703125
1713722600277489036,0.034088462591171265,0.02556634694337845,0.01065264455974102,-0.009576806798577309,-1.1121066808700562,11.513715744018555
1713722600287489036,-0.10972223430871964,0.06178533658385277,0.01065264455974102,0.1256955862045288,-1.3838485479354858,11.4263277053833
1713722600296489036,-0.017044231295585632,0.007456851191818714,-0.004261057823896408,0.06703764945268631,-0.44173020124435425,9.287108421325684
1713722600306489036,0.011717909015715122,-0.037284255027770996,0.002130528911948204,-0.40222588181495667,0.7038952708244324,7.699752330780029
1713722600316489036,0.19174760580062866,-0.055393751710653305,0.004261057823896408,-0.5506663918495178,0.8212111592292786,8.232462882995605
1713722600325489036,0.14487595856189728,-0.011717909015715122,0.02130528911948204,-0.3315969407558441,0.15442600846290588,10.102334022521973
1713722600335489036,0.037284255027770996,0.03195793181657791,0.02876213937997818,-0.35673603415489197,-0.772130012512207,11.587936401367188
1713722600345489036,-0.1257012039422989,0.05965480953454971,0.03515372797846794,-0.3603273630142212,-1.1109095811843872,10.76193618774414
1713722600355489036,-0.13528858125209808,0.019174760207533836,0.034088462591171265,-0.30526071786880493,-0.5638344883918762,9.818620681762695
1713722600364489036,-0.04048004746437073,-0.055393751710653305,0.03302319720387459,-0.5327098965644836,0.46806642413139343,7.746439456939697
1713722600374489036,0.06391586363315582,-0.08522115647792816,0.041545312851667404,-0.4991910457611084,0.7338228225708008,8.275558471679688
1713722600383489036,0.15020228922367096,-0.04261057823896408,0.04687163606286049,-0.3363853394985199,0.12449848651885986,10.162188529968262
1713722600393489036,0.05006742849946022,0.026631610468029976,0.05752427875995636,-0.3603273630142212,-0.7158662676811218,11.001357078552246
1713722600403489036,-0.09587380290031433,0.06924218684434891,0.06285060197114944,-0.010773907415568829,-1.4329296350479126,11.884817123413086
1713722600413489036,-0.055393751710653305,0.015978965908288956,0.0511326938867569,0.10055647045373917,-0.9493009448051453,10.39083480834961
1713722600422489036,-0.006391586735844612,-0.058589544147253036,0.0511326938867569,-0.16998831927776337,0.18914192914962769,7.940369606018066
1713722600432489036,0.13528858125209808,-0.08735168725252151,0.05326322093605995,-0.3519476354122162,0.8451532125473022,7.886500358581543
1713722600442489036,0.19387812912464142,-0.037284255027770996,0.06391586363315582,-0.45010989904403687,0.5985504388809204,9.522936820983887
1713722600451489036,0.11078750342130661,0.037284255027770996,0.07776430249214172,-0.4106055796146393,-0.31364041566848755,10.47702693939209
1713722600461489036,-0.058589544147253036,0.0788295716047287,0.08309062570333481,-0.04429272934794426,-1.1971008777618408,11.161767959594727
1713722600471489036,-0.1906823366880417,0.07030745595693588,0.07669904083013535,0.1149216815829277,-1.3204022645950317,11.36288070678711
1713722600481489036,-0.0788295716047287,-0.024501081556081772,0.06924218684434891,-0.13527239859104156,-0.21547815203666687,8.789113998413086
1713722600490489036,-0.047936901450157166,-0.08202536404132843,0.07243797928094864,-0.49320554733276367,0.5985504388809204,7.717709064483643
1713722600500489036,0.14913702011108398,-0.0884169489145279,0.07350324839353561,-0.4644751250743866,0.4118026793003082,9.238027572631836
1713722600510489036,0.1065264418721199,-0.008522115647792816,0.08415588736534119,-0.11013327538967133,-0.3579331338405609,11.049241065979004
1713722600520489036,0.04687163606286049,0.06072007119655609,0.08735168725252151,0.07541735470294952,-0.9959878921508789,11.447875022888184
1713722600529489036,-0.07563377171754837,0.09054747968912125,0.08415588736534119,0.22026655077934265,-0.8463503122329712,10.229227066040039
1713722600539489036,-0.006391586735844612,0.02876213937997818,0.06924218684434891,0.07900865375995636,-0.043095629662275314,8.899247169494629
1713722600549489036,0.00532632227987051,-0.02876213937997818,0.07243797928094864,-0.2861070930957794,0.5398924946784973,8.146270751953125
1713722600558489036,0.13102751970291138,-0.06178533658385277,0.07030745595693588,-0.3890577554702759,0.547075092792511,8.65743350982666
1713722600568489036,0.08309062570333481,-0.034088462591171265,0.07989483326673508,-0.25977087020874023,0.22266075015068054,9.625887870788574
1713722600578489036,0.002130528911948204,0.01065264455974102,0.08628641813993454,-0.1735796183347702,-0.4141968786716461,10.675745010375977
1713722600587489036,-0.1203748807311058,0.047936901450157166,0.08948221057653427,0.02513911761343479,-0.7709329128265381,10.573991775512695
1713722600597489036,-0.12357067316770554,0.034088462591171265,0.08628641813993454,0.05027823522686958,-0.6129156351089478,10.45547866821289
1713722600607489036,-0.022370552644133568,-0.029827404767274857,0.08415588736534119,-0.35314473509788513,0.002394201699644327,9.119514465332031
1713722600617489036,0.03941478580236435,-0.05645901337265968,0.08628641813993454,-0.3627215623855591,0.10773907601833344,9.489418029785156
1713722600626489036,0.15020228922367096,-0.04048004746437073,0.08202536404132843,-0.0933738648891449,-0.28730419278144836,10.237606048583984
1713722600636489036,0.06924218684434891,0.022370552644133568,0.08735168725252151,0.14844051003456116,-0.7326257228851318,10.17416000366211
1713722600646489036,-0.034088462591171265,0.06178533658385277,0.08309062570333481,0.20949263870716095,-0.8738836050033569,10.87685775756836
1713722600656489036,-0.02876213937997818,0.055393751710653305,0.07776430249214172,0.010773907415568829,-0.33758243918418884,9.985017776489258
1713722600665489036,0.024501081556081772,0.001065264455974102,0.07243797928094864,-0.2693476974964142,0.2825157940387726,8.268375396728516
1713722600675489036,0.06285060197114944,-0.04367584362626076,0.07030745595693588,-0.30286651849746704,0.386663556098938,8.708908081054688
1713722600685489036,0.10972223430871964,-0.05645901337265968,0.0649811327457428,0.06584054231643677,0.13407529890537262,9.549273490905762
1713722600694489036,0.034088462591171265,-0.030892668291926384,0.06178533658385277,0.2238578498363495,-0.2753331959247589,9.610325813293457
1713722600704489036,-0.07137271761894226,0.002130528911948204,0.05752427875995636,0.34356793761253357,-0.652419924736023,10.485405921936035
1713722600714489036,-0.1257012039422989,0.026631610468029976,0.05006742849946022,0.4489127993583679,-0.5327098965644836,10.583568572998047
1713722600723489036,-0.03621898964047432,0.003195793367922306,0.041545312851667404,0.32202011346817017,-0.17477671802043915,9.549273490905762
1713722600733489036,-0.00532632227987051,-0.026631610468029976,0.03834952041506767,0.23942016065120697,-0.14365209639072418,9.391256332397461
1713722600743489036,0.09800432622432709,-0.041545312851667404,0.02876213937997818,0.41778817772865295,-0.2717418968677521,9.981427192687988
1713722600753489036,0.08948221057653427,0.0,0.02556634694337845,0.45250412821769714,-0.48602294921875,10.341753959655762
1713722600762489036,0.049002163112163544,0.049002163112163544,0.02130528911948204,0.2777273952960968,-0.6416460275650024,10.073603630065918
1713722600772489036,-0.015978965908288956,0.07669904083013535,0.01810949482023716,0.2825157940387726,-0.38067805767059326,9.422380447387695
1713722600782489036,0.012783173471689224,0.04048004746437073,0.004261057823896408,0.16160860657691956,0.004788403399288654,9.211690902709961
1713722600791489036,0.01065264455974102,-0.008522115647792816,0.002130528911948204,-0.021547814831137657,0.12210428714752197,9.337386131286621
1713722600801489036,0.05645901337265968,-0.044741105288267136,-0.002130528911948204,-0.061052143573760986,0.07422025501728058,9.502586364746094
1713722600811489036,0.024501081556081772,-0.03515372797846794,-0.001065264455974102,-0.07422025501728058,-0.019153613597154617,9.628281593322754
1713722600821489036,-0.014913702383637428,-0.001065264455974102,0.0,-0.04429272934794426,-0.20350714027881622,9.852139472961426
1713722600830489036,-0.06178533658385277,0.03941478580236435,0.004261057823896408,-0.02513911761343479,-0.1843535304069519,9.781511306762695
1713722600840489036,-0.047936901450157166,0.05006742849946022,0.00532632227987051,-0.1304839849472046,-0.15322890877723694,10.042478561401367
1713722600850489036,0.014913702383637428,0.015978965908288956,0.00532632227987051,-0.4129997789859772,-0.2585737705230713,10.096348762512207
1713722600859489036,0.026631610468029976,-0.014913702383637428,0.009587380103766918,-0.3447650372982025,-0.48961424827575684,10.521319389343262
1713722600869489036,0.07563377171754837,-0.02876213937997818,0.003195793367922306,-0.002394201699644327,-0.5602431893348694,10.363302230834961
1713722600879489036,0.027696875855326653,-0.008522115647792816,0.001065264455974102,0.10654197633266449,-0.4453215003013611,9.86770248413086
1713722600888489036,0.008522115647792816,0.015978965908288956,-0.002130528911948204,0.15801730751991272,-0.24660277366638184,9.68933391571045
1713722600898489036,0.019174760207533836,0.03195793181657791,-0.004261057823896408,0.08978256583213806,0.14484919607639313,8.866926193237305
1713722600908489036,0.030892668291926384,0.034088462591171265,-0.00532632227987051,-0.152031809091568,0.3172317147254944,8.868123054504395
1713722600918489036,0.027696875855326653,0.020240023732185364,-0.003195793367922306,-0.152031809091568,0.10295066982507706,9.548076629638672
1713722600927489036,0.001065264455974102,-0.009587380103766918,-0.003195793367922306,-0.05985504016280174,-0.1256955862045288,9.854534149169922
1713722600937489036,-0.03515372797846794,-0.03302319720387459,-0.00532632227987051,-0.047884032130241394,-0.181959331035614,9.781511306762695
1713722600947489036,-0.055393751710653305,-0.037284255027770996,-0.008522115647792816,-0.002394201699644327,-0.20709843933582306,9.75517463684082
1713722600957489036,-0.04261057823896408,-0.02130528911948204,-0.008522115647792816,-0.08738835901021957,-0.1496376097202301,9.815030097961426
1713722600966489036,-0.001065264455974102,0.002130528911948204,-0.004261057823896408,-0.30047231912612915,-0.04189852997660637,10.000580787658691
1713722600976489036,0.034088462591171265,0.026631610468029976,0.0,-0.3148375153541565,-0.18315643072128296,10.070012092590332
1713722600986489036,0.0511326938867569,0.034088462591171265,0.003195793367922306,-0.18914192914962769,-0.49559974670410156,10.231620788574219
1713722600995489036,0.049002163112163544,0.012783173471689224,-0.002130528911948204,-0.06584054231643677,-0.6177040338516235,10.437521934509277
1713722601005489036,0.020240023732185364,-0.020240023732185364,-0.004261057823896408,0.13527239859104156,-0.5255272388458252,10.165780067443848
1713722601015489036,0.026631610468029976,-0.03941478580236435,-0.007456851191818714,0.14484919607639313,-0.1759738177061081,9.3828763961792
1713722601025489036,0.026631610468029976,-0.019174760207533836,-0.00532632227987051,-0.017956512048840523,0.2106897532939911,8.854954719543457
1713722601034489036,0.03621898964047432,0.017044231295585632,-0.001065264455974102,-0.09935937076807022,0.243011474609375,8.979453086853027
1713722601044489036,0.015978965908288956,0.04580637067556381,0.003195793367922306,-0.07661445438861847,0.06584054231643677,9.439140319824219
1713722601054489036,-0.02130528911948204,0.047936901450157166,0.003195793367922306,-0.10773907601833344,-0.05506663769483566,9.872490882873535
1713722601063489036,-0.02130528911948204,0.012783173471689224,-0.002130528911948204,-0.20350714027881622,-0.0933738648891449,9.84615421295166
1713722601073489036,-0.03834952041506767,-0.03302319720387459,-0.003195793367922306,-0.19273322820663452,-0.15801730751991272,9.710882186889648
1713722601083489036,-0.022370552644133568,-0.05645901337265968,-0.007456851191818714,-0.16639702022075653,-0.12090718746185303,9.697713851928711
1713722601092489036,-0.015978965908288956,-0.034088462591171265,-0.00532632227987051,-0.16519992053508759,-0.09457096457481384,9.897629737854004
1713722601102489036,-0.013848437927663326,0.013848437927663326,0.002130528911948204,-0.17956513166427612,-0.26815059781074524,10.06043529510498
1713722601112489036,-0.00532632227987051,0.04580637067556381,0.004261057823896408,-0.09696516394615173,-0.5614402890205383,10.699687004089355
1713722601122489036,0.04687163606286049,0.02130528911948204,-0.001065264455974102,0.15562310814857483,-0.6943184733390808,10.564414978027344
1713722601132489036,0.03941478580236435,-0.017044231295585632,-0.003195793367922306,0.24061726033687592,-0.5722141861915588,10.193313598632812
1713722601141489036,0.10546118021011353,-0.03515372797846794,-0.012783173471689224,0.19153612852096558,-0.08259996026754379,9.334992408752441
1713722601151489036,0.08202536404132843,-0.00532632227987051,-0.014913702383637428,0.1388636976480484,0.30526071786880493,8.525752067565918
1713722601160489036,0.055393751710653305,0.02876213937997818,-0.01810949482023716,0.09816227108240128,0.20350714027881622,9.148244857788086
1713722601170489036,0.00532632227987051,0.044741105288267136,-0.023435818031430244,0.20709843933582306,0.11013327538967133,9.222464561462402
1713722601180489036,-0.0649811327457428,0.034088462591171265,-0.03302319720387459,0.2454056739807129,0.05626373738050461,9.32421875
1713722601189489036,-0.10759171098470688,0.003195793367922306,-0.041545312851667404,0.22026655077934265,-0.06224924325942993,9.75637149810791
1713722601199489036,-0.08948221057653427,-0.03834952041506767,-0.047936901450157166,0.16160860657691956,-0.14006079733371735,9.895235061645508
1713722601209489036,-0.08202536404132843,-0.052197955548763275,-0.049002163112163544,0.014365210197865963,-0.1628057062625885,9.998186111450195
1713722601219489036,-0.02556634694337845,-0.027696875855326653,-0.04261057823896408,-0.005985504016280174,-0.26575639843940735,10.108319282531738
1713722601228489036,0.002130528911948204,0.029827404767274857,-0.037284255027770996,-0.028730420395731926,-0.4596867263317108,10.517727851867676
1713722601238489036,0.06817692518234253,0.055393751710653305,-0.04048004746437073,-0.07422025501728058,-0.48961424827575684,10.530896186828613
1713722601248489036,0.07563377171754837,0.041545312851667404,-0.03941478580236435,-0.05746084079146385,-0.4106055796146393,9.97184944152832
1713722601257489036,0.09693906456232071,0.007456851191818714,-0.04367584362626076,-0.07062894850969315,-0.26336216926574707,9.72285270690918
1713722601267489036,0.07456851005554199,-0.009587380103766918,-0.0511326938867569,-0.07541735470294952,0.08858545869588852,9.151835441589355
1713722601277489036,0.03834952041506767,-0.017044231295585632,-0.05326322093605995,-0.10893617570400238,0.22026655077934265,8.662221908569336
1713722601287489036,-0.02556634694337845,-0.012783173471689224,-0.05326322093605995,-0.1867477297782898,0.0586579404771328,9.033323287963867
1713722601296489036,-0.08309062570333481,-0.004261057823896408,-0.052197955548763275,-0.104147769510746,0.05027823522686958,9.466672897338867
1713722601306489036,-0.11398329585790634,0.002130528911948204,-0.0511326938867569,0.033518824726343155,0.12210428714752197,9.352949142456055
1713722601316489036,-0.09693906456232071,-0.002130528911948204,-0.0511326938867569,0.04429272934794426,-0.07900865375995636,9.660603523254395
1713722601326489036,-0.06072007119655609,-0.020240023732185364,-0.047936901450157166,0.061052143573760986,-0.31842881441116333,10.363302230834961
1713722601335489036,-0.03515372797846794,-0.019174760207533836,-0.04580637067556381,-0.11851298063993454,-0.46567222476005554,10.935516357421875
1713722601345489036,0.012783173471689224,0.011717909015715122,-0.041545312851667404,-0.272938996553421,-0.5135562419891357,10.703278541564941
1713722601355489036,0.04580637067556381,0.037284255027770996,-0.04261057823896408,-0.0933738648891449,-0.2849099934101105,9.618704795837402
1713722601364489036,0.052197955548763275,0.03302319720387459,-0.04580637067556381,0.0011971008498221636,-0.104147769510746,9.167398452758789
1713722601374489036,0.06178533658385277,0.008522115647792816,-0.05326322093605995,0.031124621629714966,-0.21667525172233582,9.536105155944824
1713722601384489036,0.017044231295585632,-0.013848437927663326,-0.05965480953454971,0.03950432687997818,-0.32202011346817017,9.999382972717285
1713722601393489036,-0.020240023732185364,-0.026631610468029976,-0.06178533658385277,-0.08619125932455063,-0.18076223134994507,9.60912799835205
1713722601403489036,-0.05645901337265968,-0.023435818031430244,-0.06072007119655609,-0.08140285313129425,0.0035913025494664907,9.05606746673584
1713722601413489036,-0.06391586363315582,-0.01065264455974102,-0.058589544147253036,0.005985504016280174,0.09457096457481384,9.187748908996582
1713722601423489036,-0.05006742849946022,0.006391586735844612,-0.058589544147253036,0.05626373738050461,0.13407529890537262,9.273940086364746
1713722601432489036,-0.03515372797846794,0.01065264455974102,-0.06072007119655609,0.10175357013940811,-0.06823474913835526,9.697713851928711
1713722601442489036,-0.030892668291926384,0.001065264455974102,-0.06285060197114944,0.06344634294509888,-0.42377370595932007,10.449493408203125
1713722601452489036,-0.03302319720387459,-0.015978965908288956,-0.06072007119655609,-0.043095629662275314,-0.6344634294509888,10.83974838256836
1713722601462489036,-0.02130528911948204,-0.019174760207533836,-0.05752427875995636,-0.2561795711517334,-0.5710170865058899,10.467449188232422
1713722601471489036,0.007456851191818714,-0.004261057823896408,-0.055393751710653305,-0.3172317147254944,-0.2585737705230713,9.680953979492188
1713722601481489036,0.03515372797846794,0.013848437927663326,-0.05432848632335663,-0.04429272934794426,0.004788403399288654,9.211690902709961
1713722601490489036,0.04261057823896408,0.02130528911948204,-0.05752427875995636,0.009576806798577309,-0.1496376097202301,9.470264434814453
1713722601500489036,0.006391586735844612,0.017044231295585632,-0.06178533658385277,-0.047884032130241394,-0.5195417404174805,10.074800491333008
1713722601510489036,-0.034088462591171265,-0.004261057823896408,-0.06391586363315582,0.07182604819536209,-0.5506663918495178,10.290278434753418
1713722601520489036,-0.03941478580236435,-0.02876213937997818,-0.06178533658385277,-0.0454898327589035,-0.23702596127986908,9.593565940856934
1713722601529489036,-0.02556634694337845,-0.03195793181657791,-0.06072007119655609,-0.16998831927776337,0.05386953800916672,8.990227699279785
1713722601539489036,0.017044231295585632,-0.014913702383637428,-0.05965480953454971,0.02274491637945175,0.27054479718208313,8.802282333374023
1713722601549489036,0.01810949482023716,0.008522115647792816,-0.05965480953454971,0.1304839849472046,0.19393032789230347,9.17936897277832
1713722601559489036,-0.015978965908288956,0.024501081556081772,-0.06285060197114944,0.06703764945268631,-0.2621650695800781,10.218452453613281
1713722601568489036,-0.0788295716047287,0.022370552644133568,-0.06711165606975555,0.07422025501728058,-0.7984662652015686,11.071985244750977
1713722601578489036,-0.06178533658385277,-0.017044231295585632,-0.06924218684434891,-0.047884032130241394,-0.8619126081466675,10.72841739654541
1713722601588489036,-0.04580637067556381,-0.052197955548763275,-0.06817692518234253,-0.37229835987091064,-0.33039984107017517,9.48343276977539
1713722601597489036,0.034088462591171265,-0.05326322093605995,-0.06711165606975555,-0.15322890877723694,0.043095629662275314,9.14345645904541
1713722601607489036,0.07989483326673508,-0.012783173471689224,-0.06711165606975555,0.21787235140800476,0.0347159244120121,9.249998092651367
1713722601617489036,0.05326322093605995,0.04367584362626076,-0.06285060197114944,-0.019153613597154617,-0.29209259152412415,9.66419506072998
1713722601627489036,-0.03515372797846794,0.07563377171754837,-0.06178533658385277,-0.019153613597154617,-0.7601590156555176,10.492588996887207
1713722601636489036,-0.05645901337265968,0.041545312851667404,-0.06604639440774918,0.09696516394615173,-0.7158662676811218,10.562020301818848
1713722601646489036,-0.027696875855326653,-0.034088462591171265,-0.06604639440774918,-0.16759411990642548,-0.0347159244120121,9.192537307739258
1713722601656489036,0.019174760207533836,-0.07776430249214172,-0.07137271761894226,-0.10295066982507706,0.36750996112823486,8.614337921142578
1713722601665489036,0.07243797928094864,-0.06817692518234253,-0.07456851005554199,0.23343466222286224,0.27054479718208313,8.87530517578125
1713722601675489036,0.023435818031430244,-0.014913702383637428,-0.07456851005554199,0.1280897855758667,-0.15562310814857483,9.475052833557129
1713722601685489036,-0.0884169489145279,0.05006742849946022,-0.07030745595693588,0.004788403399288654,-0.9217676520347595,11.216835021972656
1713722601695489036,-0.14168016612529755,0.07030745595693588,-0.06711165606975555,0.08858545869588852,-1.2653355598449707,12.588712692260742
1713722601704489036,-0.011717909015715122,0.004261057823896408,-0.06817692518234253,-0.21547815203666687,-0.43095630407333374,9.976638793945312
1713722601714489036,0.007456851191818714,-0.044741105288267136,-0.0649811327457428,-0.22505494952201843,0.2968810200691223,8.243236541748047
1713722601724489036,0.20133498311042786,-0.06924218684434891,-0.07776430249214172,0.2322375625371933,0.35314473509788513,8.075642585754395
1713722601733489036,0.09906959533691406,-0.014913702383637428,-0.07137271761894226,0.24061726033687592,-0.047884032130241394,9.170989036560059
1713722601743489036,0.001065264455974102,0.03515372797846794,-0.0788295716047287,-0.0011971008498221636,-0.7481880187988281,11.083956718444824
1713722601753489036,-0.13635385036468506,0.0788295716047287,-0.07563377171754837,0.08978256583213806,-0.849941611289978,10.320206642150879
1713722601762489036,-0.185356006026268,0.055393751710653305,-0.08096009492874146,0.14844051003456116,-0.42616790533065796,10.414776802062988
1713722601772489036,-0.06178533658385277,-0.014913702383637428,-0.08522115647792816,-0.24779987335205078,0.48123452067375183,8.121131896972656
1713722601782489036,-0.02876213937997818,-0.055393751710653305,-0.08202536404132843,-0.18315643072128296,0.6224924325942993,7.880514621734619
1713722601792489036,0.092678003013134,-0.06178533658385277,-0.0884169489145279,0.043095629662275314,0.014365210197865963,9.610325813293457
1713722601801489036,-0.011717909015715122,0.0,-0.07989483326673508,0.02274491637945175,-0.7781155109405518,11.062408447265625
1713722601811489036,-0.12783172726631165,0.05752427875995636,-0.07669904083013535,-0.05985504016280174,-1.6148890256881714,12.36605167388916
1713722601821489036,-0.08948221057653427,0.05006742849946022,-0.07456851005554199,-0.3411737382411957,-1.1899182796478271,10.78228759765625
1713722601831489036,0.01065264455974102,-0.01810949482023716,-0.07137271761894226,-0.4728548228740692,0.12210428714752197,8.252813339233398
1713722601840489036,0.1299622654914856,-0.05752427875995636,-0.06817692518234253,-0.10654197633266449,0.5865793824195862,8.380903244018555
1713722601850489036,0.2322276532649994,-0.058589544147253036,-0.07030745595693588,0.3076549172401428,0.3076549172401428,9.260771751403809
1713722601860489036,0.12783172726631165,-0.01065264455974102,-0.06391586363315582,0.05267243832349777,-0.2346317619085312,9.385270118713379
1713722601869489036,-0.05645901337265968,0.037284255027770996,-0.06604639440774918,-0.08858545869588852,-1.0642226934432983,11.022904396057129
1713722601879489036,-0.19813919067382812,0.06924218684434891,-0.06711165606975555,-0.031124621629714966,-0.9828197956085205,10.465055465698242
1713722601889489036,-0.24501082301139832,0.06604639440774918,-0.0649811327457428,-0.13527239859104156,-0.09935937076807022,9.30386734008789
1713722601898489036,-0.07776430249214172,-0.003195793367922306,-0.07456851005554199,-0.3196259140968323,0.6979097723960876,7.8948798179626465
1713722601908489036,-0.055393751710653305,-0.044741105288267136,-0.06604639440774918,-0.333991140127182,0.46567222476005554,8.65863037109375
1713722601918489036,0.07456851005554199,-0.0649811327457428,-0.07137271761894226,-0.2561795711517334,-0.49320554733276367,10.741585731506348
1713722601927489036,-0.04048004746437073,-0.004261057823896408,-0.055393751710653305,-0.16879121959209442,-1.5155296325683594,12.008118629455566
1713722601937489036,-0.12676647305488586,0.041545312851667404,-0.0511326938867569,-0.16639702022075653,-1.8339585065841675,13.020865440368652
1713722601947489036,0.029827404767274857,0.011717909015715122,-0.0511326938867569,-0.37828385829925537,-0.5159504413604736,9.621099472045898
1713722601957489036,0.0511326938867569,-0.019174760207533836,-0.04261057823896408,-0.07422025501728058,0.6548141837120056,7.5848307609558105
1713722601966489036,0.2790992856025696,-0.05752427875995636,-0.0511326938867569,0.27892449498176575,0.9038110971450806,7.3669586181640625
1713722601976489036,0.18322548270225525,-0.023435818031430244,-0.041545312851667404,0.19033902883529663,0.2753331959247589,9.016563415527344
1713722601986489036,0.06285060197114944,0.01065264455974102,-0.04367584362626076,-0.04429272934794426,-0.8200140595436096,11.043254852294922
1713722601996489036,-0.16085493564605713,0.04687163606286049,-0.05006742849946022,0.026336219161748886,-1.280897855758667,10.431536674499512
1713722602005489036,-0.29401299357414246,0.06391586363315582,-0.05432848632335663,0.1496376097202301,-0.6991068720817566,9.775525093078613
1713722602015489036,-0.2034655064344406,0.023435818031430244,-0.058589544147253036,0.0454898327589035,0.4668693244457245,8.110358238220215
1713722602024489036,-0.10333064943552017,-0.026631610468029976,-0.058589544147253036,-0.2059013396501541,0.7781155109405518,7.771578788757324
1713722602034489036,0.024501081556081772,-0.034088462591171265,-0.05326322093605995,-0.36750996112823486,-0.02992752008140087,9.907206535339355
1713722602044489036,0.026631610468029976,0.012783173471689224,-0.04367584362626076,-0.3387795388698578,-1.0965443849563599,12.472593307495117
1713722602054489036,-0.03621898964047432,0.07350324839353561,-0.029827404767274857,-0.3926490843296051,-1.5131354331970215,11.871648788452148
1713722602064489036,-0.01065264455974102,0.058589544147253036,-0.026631610468029976,-0.5374982953071594,-0.8212111592292786,9.989806175231934
1713722602073489036,0.04048004746437073,0.003195793367922306,-0.02130528911948204,-0.416591078042984,0.20231004059314728,8.267178535461426
1713722602083489036,0.15233281254768372,-0.03941478580236435,-0.019174760207533836,-0.1173158809542656,0.6129156351089478,7.961917400360107
1713722602093489036,0.15659387409687042,-0.034088462591171265,-0.014913702383637428,-0.2346317619085312,0.23942016065120697,9.41759204864502
1713722602102489036,0.04687163606286049,0.006391586735844612,-0.006391586735844612,-0.4273650050163269,-0.5434837937355042,10.023324966430664
1713722602112489036,-0.15552860498428345,0.052197955548763275,-0.002130528911948204,-0.41539397835731506,-1.2222399711608887,11.062408447265625
1713722602122489036,-0.24501082301139832,0.05645901337265968,0.003195793367922306,-0.2513911724090576,-1.1719616651535034,11.494562149047852
1713722602132489036,-0.08735168725252151,-0.024501081556081772,0.001065264455974102,-0.386663556098938,-0.11013327538967133,8.793902397155762
1713722602141489036,-0.052197955548763275,-0.07030745595693588,0.014913702383637428,-0.5518634915351868,0.5877764821052551,8.133103370666504
1713722602151489036,0.18855179846286774,-0.07669904083013535,0.014913702383637428,-0.5003881454467773,0.40940847992897034,8.62391471862793
1713722602160489036,0.10120011866092682,0.00532632227987051,0.027696875855326653,-0.3579331338405609,-0.40701428055763245,10.316615104675293
1713722602170489036,0.002130528911948204,0.07030745595693588,0.034088462591171265,-0.040701426565647125,-1.3503297567367554,12.06318473815918
1713722602180489036,-0.15446333587169647,0.1022653877735138,0.03302319720387459,0.05386953800916672,-1.338358759880066,10.392032623291016
1713722602190489036,-0.11078750342130661,0.04048004746437073,0.020240023732185364,-0.16998831927776337,-0.4225766062736511,9.429563522338867
1713722602199489036,-0.04261057823896408,-0.034088462591171265,0.022370552644133568,-0.365115761756897,0.4920084476470947,7.757213592529297
1713722602209489036,0.08735168725252151,-0.07456851005554199,0.024501081556081772,-0.1735796183347702,0.46806642413139343,8.058882713317871
1713722602219489036,0.09693906456232071,-0.04367584362626076,0.026631610468029976,-0.02274491637945175,-0.264559268951416,10.436325073242188
1713722602229489036,-0.004261057823896408,0.01810949482023716,0.03195793181657791,-0.011971008032560349,-1.094150185585022,11.318588256835938
1713722602238489036,-0.16618125140666962,0.0649811327457428,0.03302319720387459,0.26575639843940735,-1.6124948263168335,11.475408554077148
1713722602248489036,-0.09906959533691406,0.019174760207533836,0.017044231295585632,0.1604115068912506,-0.993593692779541,10.436325073242188
1713722602258489036,-0.019174760207533836,-0.04367584362626076,0.01810949482023716,-0.27653029561042786,0.16998831927776337,8.01339340209961
1713722602267489036,0.13315805792808533,-0.0649811327457428,0.020240023732185364,-0.2992752194404602,0.4082113802433014,8.246828079223633
1713722602277489036,0.18322548270225525,-0.019174760207533836,0.024501081556081772,-0.20470423996448517,-0.10654197633266449,10.158597946166992
1713722602287489036,0.08735168725252151,0.0511326938867569,0.03302319720387459,-0.04668693244457245,-0.8271966576576233,10.619481086730957
1713722602297489036,-0.08415588736534119,0.09054747968912125,0.03515372797846794,0.1173158809542656,-1.3491326570510864,10.765527725219727
1713722602306489036,-0.16831177473068237,0.0788295716047287,0.029827404767274857,0.03950432687997818,-1.0223240852355957,11.189301490783691
1713722602316489036,-0.03302319720387459,-0.002130528911948204,0.026631610468029976,-0.1999158412218094,0.1843535304069519,8.559270858764648
1713722602326489036,-0.006391586735844612,-0.04048004746437073,0.037284255027770996,-0.4967968463897705,0.7062894701957703,7.6734161376953125
1713722602335489036,0.16618125140666962,-0.03515372797846794,0.04048004746437073,-0.5183446407318115,0.23822306096553802,8.80587387084961
1713722602345489036,0.047936901450157166,0.027696875855326653,0.05006742849946022,-0.1388636976480484,-0.7625532150268555,10.418368339538574
1713722602355489036,-0.07563377171754837,0.06604639440774918,0.04048004746437073,0.4273650050163269,-1.8519150018692017,12.372036933898926
1713722602364489036,-0.1203748807311058,0.03621898964047432,0.020240023732185364,0.49320554733276367,-1.6172832250595093,11.663352966308594
1713722602374489036,-0.011717909015715122,-0.05006742849946022,0.00532632227987051,0.14484919607639313,-0.2513911724090576,8.905233383178711
1713722602384489036,0.06924218684434891,-0.08202536404132843,0.002130528911948204,0.002394201699644327,0.5650315880775452,8.018181800842285
1713722602393489036,0.25672873854637146,-0.06072007119655609,-0.006391586735844612,0.031124621629714966,0.5554547905921936,8.360551834106445
1713722602403489036,0.1757686287164688,0.015978965908288956,0.002130528911948204,0.09696516394615173,-0.02753331884741783,8.772355079650879
1713722602413489036,0.02876213937997818,0.06285060197114944,0.0,0.21308395266532898,-1.116895079612732,11.191695213317871
1713722602423489036,-0.14168016612529755,0.08415588736534119,-0.007456851191818714,0.20231004059314728,-1.4616601467132568,11.134234428405762
1713722602432489036,-0.2183792144060135,0.058589544147253036,-0.011717909015715122,0.16519992053508759,-0.790086567401886,10.699687004089355
1713722602442489036,-0.05965480953454971,-0.027696875855326653,-0.02130528911948204,-0.10773907601833344,0.43335050344467163,8.334216117858887
1713722602452489036,-0.011717909015715122,-0.06178533658385277,-0.01810949482023716,-0.3064578175544739,0.6751648783683777,7.861361026763916
1713722602461489036,0.16937704384326935,-0.06285060197114944,-0.026631610468029976,-0.11252747476100922,-0.06703764945268631,9.260771751403809
1713722602471489036,0.052197955548763275,0.006391586735844612,-0.024501081556081772,0.3280056416988373,-1.1180921792984009,11.142614364624023
1713722602481489036,-0.07350324839353561,0.047936901450157166,-0.037284255027770996,0.45010989904403687,-1.84233820438385,12.591106414794922
1713722602490989000,-0.06285060197114944,0.03515372797846794,-0.044741105288267136,0.19153612852096558,-1.1204863786697388,10.552443504333496
1713722602500989000,0.024501081556081772,-0.03195793181657791,-0.0511326938867569,0.009576806798577309,0.19871874153614044,7.934384346008301
1713722602509989000,0.13848437368869781,-0.05752427875995636,-0.047936901450157166,-0.10175357013940811,0.6943184733390808,8.01339340209961
1713722602519989000,0.23861923813819885,-0.029827404767274857,-0.04580637067556381,-0.026336219161748886,0.38786065578460693,9.14585018157959
1713722602529989000,0.1438107043504715,0.023435818031430244,-0.037284255027770996,0.18076223134994507,-0.243011474609375,9.314641952514648
1713722602538989000,-0.049002163112163544,0.05006742849946022,-0.05006742849946022,0.2609679698944092,-1.115697979927063,11.044452667236328
1713722602548989000,-0.18642127513885498,0.05326322093605995,-0.05752427875995636,-0.0035913025494664907,-1.0319008827209473,10.720037460327148
1713722602558989000,-0.16618125140666962,0.006391586735844612,-0.05965480953454971,-0.07062894850969315,-0.12449848651885986,8.884881973266602
1713722602567989000,-0.07776430249214172,-0.06285060197114944,-0.06391586363315582,-0.22864626348018646,0.5255272388458252,7.86854362487793
1713722602577989000,0.03195793181657791,-0.07563377171754837,-0.06072007119655609,-0.10175357013940811,0.21308395266532898,9.106346130371094
1713722602587989000,0.07989483326673508,-0.03195793181657791,-0.06178533658385277,0.1759738177061081,-0.7362170219421387,11.275492668151855
1713722602596989000,0.009587380103766918,0.037284255027770996,-0.06072007119655609,0.2849099934101105,-1.5298948287963867,11.563994407653809
1713722602606989000,-0.06924218684434891,0.058589544147253036,-0.06924218684434891,0.28969839215278625,-1.7345991134643555,12.38879680633545
1713722602616989000,0.06285060197114944,-0.002130528911948204,-0.0788295716047287,0.0586579404771328,-0.6129156351089478,9.922768592834473
1713722602626989000,0.08948221057653427,-0.03621898964047432,-0.07669904083013535,0.08140285313129425,0.3902548849582672,8.101978302001953
1713722602635989000,0.28442561626434326,-0.052197955548763275,-0.09054747968912125,0.181959331035614,0.6117185354232788,7.818265438079834
1713722602645989000,0.17363810539245605,-0.006391586735844612,-0.08309062570333481,0.395043283700943,0.15801730751991272,8.585607528686523
1713722602655989000,0.02876213937997818,0.013848437927663326,-0.1022653877735138,0.4836287498474121,-0.8259995579719543,11.104307174682617
1713722602665989000,-0.11930961906909943,0.03834952041506767,-0.10759171098470688,0.2322375625371933,-1.0833762884140015,10.341753959655762
1713722602674989000,-0.23968449234962463,0.04261057823896408,-0.10759171098470688,0.031124621629714966,-0.7074865698814392,9.973047256469727
1713722602684989000,-0.09906959533691406,-0.013848437927663326,-0.10972223430871964,0.17477671802043915,0.08978256583213806,8.560467720031738
1713722602694989000,-0.05432848632335663,-0.049002163112163544,-0.10546118021011353,0.0694318488240242,0.3890577554702759,8.276755332946777
1713722602703989000,0.12889699637889862,-0.05326322093605995,-0.11185276508331299,0.04429272934794426,0.06464344263076782,9.566032409667969
1713722602713989000,0.09374327212572098,0.01065264455974102,-0.11185276508331299,0.3687070608139038,-0.6584054827690125,11.079168319702148
1713722602723989000,0.024501081556081772,0.06817692518234253,-0.1203748807311058,0.11372458189725876,-1.3850456476211548,11.726799964904785
1713722602732989000,-0.06178533658385277,0.08948221057653427,-0.11930961906909943,0.07182604819536209,-1.2880804538726807,11.185709953308105
1713722602742989000,0.02876213937997818,0.017044231295585632,-0.13102751970291138,-0.0011971008498221636,-0.48722004890441895,9.527725219726562
1713722602752989000,0.034088462591171265,-0.037284255027770996,-0.12250541150569916,-0.395043283700943,0.090979665517807,8.438364028930664
1713722602762989000,0.17789916694164276,-0.05645901337265968,-0.1257012039422989,-0.1711854189634323,0.20350714027881622,8.398859024047852
1713722602771989000,0.10013485699892044,-0.011717909015715122,-0.1203748807311058,0.22026655077934265,-0.12090718746185303,9.388861656188965
1713722602781989000,0.013848437927663326,0.03515372797846794,-0.12144014239311218,0.1304839849472046,-0.6572083830833435,10.793061256408691
1713722602791989000,-0.0884169489145279,0.06924218684434891,-0.1203748807311058,0.047884032130241394,-0.5398924946784973,9.739612579345703
1713722602800989000,-0.09587380290031433,0.04687163606286049,-0.1257012039422989,0.10893617570400238,-0.28969839215278625,9.57560920715332
1713722602810989000,-0.026631610468029976,-0.024501081556081772,-0.12783172726631165,-0.08858545869588852,-0.03950432687997818,8.957905769348145
1713722602820989000,0.01810949482023716,-0.06072007119655609,-0.12463594228029251,-0.03950432687997818,0.047884032130241394,9.433154106140137
1713722602830989000,0.09800432622432709,-0.04580637067556381,-0.12783172726631165,0.1280897855758667,-0.10773907601833344,9.84376049041748
1713722602839989000,0.04048004746437073,0.019174760207533836,-0.12357067316770554,-0.1173158809542656,-0.4800374209880829,9.623493194580078
1713722602849989000,-0.05645901337265968,0.07456851005554199,-0.12463594228029251,-0.17717091739177704,-1.0235211849212646,11.045649528503418
1713722602859989000,-0.023435818031430244,0.047936901450157166,-0.13741911947727203,0.014365210197865963,-1.0402805805206299,11.119869232177734
1713722602868989000,0.013848437927663326,-0.03195793181657791,-0.13848437368869781,-0.3148375153541565,-0.6368576288223267,9.72404956817627
1713722602878989000,0.0649811327457428,-0.07350324839353561,-0.13209278881549835,-0.48123452067375183,-0.3232172131538391,9.680953979492188
