t,gx,gy,gz,ax,ay,az
1713723114140250905,0.1299622654914856,-0.00532632227987051,-0.047936901450157166,0.2621650695800781,0.17717091739177704,9.44871711730957
1713723114149250905,-0.06072007119655609,0.0,-0.058589544147253036,0.2609679698944092,-0.4644751250743866,9.975440979003906
1713723114160250905,-0.2652508318424225,-0.00532632227987051,-0.07030745595693588,0.42616790533065796,-0.5638344883918762,10.074800491333008
1713723114169250905,-0.34088462591171265,0.00532632227987051,-0.06924218684434891,0.44173020124435425,0.09457096457481384,9.02254867553711
1713723114179250905,-0.222640261054039,-0.006391586735844612,-0.07350324839353561,0.31842881441116333,0.5422866940498352,8.427589416503906
1713723114188250905,-0.08735168725252151,-0.026631610468029976,-0.07030745595693588,0.08738835901021957,0.3363853394985199,9.126696586608887
1713723114198250905,0.034088462591171265,-0.008522115647792816,-0.06391586363315582,-0.13527239859104156,-0.3842693567276001,11.312602996826172
1713723114208250905,0.09480853378772736,0.03621898964047432,-0.06391586363315582,0.019153613597154617,-1.2042834758758545,12.54920768737793
1713723114218250905,0.020240023732185364,0.07563377171754837,-0.06391586363315582,0.033518824726343155,-1.5598224401474,12.229581832885742
1713723114227250905,0.08735168725252151,0.03195793181657791,-0.07563377171754837,-0.061052143573760986,-0.895431399345398,10.342950820922852
1713723114237250905,0.0788295716047287,-0.026631610468029976,-0.07456851005554199,0.07661445438861847,0.05506663769483566,8.216899871826172
1713723114247250905,0.21198762953281403,-0.0649811327457428,-0.07776430249214172,0.06584054231643677,0.7972691655158997,7.490260124206543
1713723114257250905,0.1619201898574829,-0.04367584362626076,-0.06711165606975555,0.12210428714752197,0.7565677165985107,8.31985092163086
1713723114266250905,0.05326322093605995,-0.024501081556081772,-0.07243797928094864,0.2825157940387726,-0.038307227194309235,9.767146110534668
1713723114276250905,-0.10439591109752655,0.017044231295585632,-0.07137271761894226,0.3064578175544739,-0.5363011956214905,10.38963794708252
1713723114286250905,-0.21518342196941376,0.041545312851667404,-0.07243797928094864,0.2346317619085312,-0.4668693244457245,10.217255592346191
1713723114295250905,-0.22477079927921295,0.037284255027770996,-0.07350324839353561,0.27892449498176575,-0.14006079733371735,10.017339706420898
1713723114305250905,-0.06817692518234253,-0.024501081556081772,-0.08096009492874146,0.0802057534456253,0.17717091739177704,8.772355079650879
1713723114315250905,-0.027696875855326653,-0.041545312851667404,-0.07350324839353561,-0.09935937076807022,0.10055647045373917,9.137470245361328
1713723114325250905,0.12357067316770554,-0.027696875855326653,-0.07776430249214172,-0.090979665517807,-0.3519476354122162,10.663774490356445
1713723114334250905,0.044741105288267136,0.04261057823896408,-0.06817692518234253,-0.1304839849472046,-0.7984662652015686,10.911574363708496
1713723114344250905,-0.026631610468029976,0.08735168725252151,-0.06604639440774918,-0.03950432687997818,-1.0522515773773193,11.778275489807129
1713723114353250905,0.03621898964047432,0.04687163606286049,-0.07563377171754837,0.1256955862045288,-0.5279214382171631,9.758766174316406
1713723114363250905,0.02130528911948204,-0.024501081556081772,-0.07669904083013535,0.14484919607639313,0.02753331884741783,8.29471206665039
1713723114373250905,0.12676647305488586,-0.07243797928094864,-0.08202536404132843,0.14724339544773102,0.3758896589279175,8.431180953979492
1713723114383250905,0.10013485699892044,-0.049002163112163544,-0.07456851005554199,0.18315643072128296,0.24660277366638184,9.301473617553711
1713723114392250905,0.04261057823896408,-0.002130528911948204,-0.07350324839353561,0.17238251864910126,-0.16998831927776337,9.861716270446777
1713723114402250905,-0.07030745595693588,0.05006742849946022,-0.07030745595693588,0.3411737382411957,-0.2609679698944092,9.658209800720215
1713723114412250905,-0.14168016612529755,0.06711165606975555,-0.07776430249214172,0.25258827209472656,-0.09457096457481384,9.495404243469238
1713723114422250905,-0.10546118021011353,0.034088462591171265,-0.08415588736534119,0.033518824726343155,-0.05027823522686958,9.285911560058594
1713723114431250905,-0.06072007119655609,-0.03621898964047432,-0.08948221057653427,0.033518824726343155,-0.181959331035614,9.72285270690918
1713723114441250905,-0.012783173471689224,-0.06391586363315582,-0.08948221057653427,-0.0694318488240242,-0.36750996112823486,10.577583312988281
1713723114451250905,0.029827404767274857,-0.037284255027770996,-0.08415588736534119,-0.21547815203666687,-0.5494692921638489,10.667365074157715
1713723114460250905,0.004261057823896408,0.030892668291926384,-0.07563377171754837,-0.1388636976480484,-0.5123591423034668,10.086771965026855
1713723114470250905,-0.00532632227987051,0.06924218684434891,-0.07243797928094864,0.16639702022075653,-0.5578489899635315,10.712855339050293
1713723114480250905,0.0511326938867569,0.03515372797846794,-0.07776430249214172,0.24660277366638184,-0.5542576909065247,10.043676376342773
1713723114489250905,0.03834952041506767,-0.006391586735844612,-0.07350324839353561,0.08499415963888168,-0.40462008118629456,9.578003883361816
1713723114499250905,0.10972223430871964,-0.03621898964047432,-0.0788295716047287,0.08379705995321274,0.004788403399288654,9.096769332885742
1713723114509250905,0.07030745595693588,-0.017044231295585632,-0.07669904083013535,0.12210428714752197,0.27413609623908997,8.60356330871582
1713723114518250905,0.026631610468029976,0.007456851191818714,-0.08096009492874146,0.0586579404771328,0.09816227108240128,9.50617790222168
1713723114528250905,-0.03515372797846794,0.026631610468029976,-0.08309062570333481,0.06224924325942993,-0.011971008032560349,9.272743225097656
1713723114538250905,-0.11504855751991272,0.026631610468029976,-0.08735168725252151,0.08619125932455063,-0.22864626348018646,9.497797966003418
1713723114548250905,-0.11504855751991272,-0.008522115647792816,-0.09161274135112762,0.03232172131538391,-0.5386953949928284,10.384849548339844
1713723114558250905,-0.07563377171754837,-0.06285060197114944,-0.09054747968912125,0.002394201699644327,-0.5865793824195862,10.578780174255371
1713723114567250905,-0.03834952041506767,-0.06924218684434891,-0.08309062570333481,-0.14724339544773102,-0.41539397835731506,10.467449188232422
1713723114577250905,0.06391586363315582,-0.015978965908288956,-0.07243797928094864,-0.18794482946395874,-0.07302314788103104,9.343372344970703
1713723114587250905,0.06817692518234253,0.06391586363315582,-0.06178533658385277,0.05506663769483566,0.07302314788103104,8.790311813354492
1713723114596250905,0.04580637067556381,0.1022653877735138,-0.058589544147253036,0.17956513166427612,-0.2693476974964142,10.160991668701172
1713723114606250905,0.019174760207533836,0.07456851005554199,-0.0649811327457428,0.22505494952201843,-0.7218518257141113,11.15817642211914
1713723114616250905,0.006391586735844612,-0.01065264455974102,-0.07776430249214172,0.17956513166427612,-0.6955155730247498,10.319008827209473
1713723114626250905,-0.023435818031430244,-0.07563377171754837,-0.08309062570333481,0.03232172131538391,-0.25258827209472656,9.248801231384277
1713723114635250905,0.03834952041506767,-0.08628641813993454,-0.08415588736534119,-0.0071826050989329815,0.2992752194404602,8.359354972839355
1713723114645250905,0.03834952041506767,-0.029827404767274857,-0.0788295716047287,0.06823474913835526,0.6141127347946167,8.092401504516602
1713723114655250905,0.023435818031430244,0.03621898964047432,-0.07669904083013535,0.181959331035614,0.3471592366695404,9.345766067504883
1713723114664250905,-0.037284255027770996,0.0788295716047287,-0.07350324839353561,0.152031809091568,-0.26336216926574707,10.3333740234375
1713723114674250905,-0.13209278881549835,0.07456851005554199,-0.07563377171754837,0.16639702022075653,-1.0271124839782715,11.7232084274292
1713723114684250905,-0.06178533658385277,-0.009587380103766918,-0.08096009492874146,-0.06823474913835526,-1.091755986213684,11.058817863464355
1713723114693250905,-0.06391586363315582,-0.07669904083013535,-0.07350324839353561,-0.4884171485900879,-0.32441431283950806,9.02135181427002
1713723114703250905,0.09693906456232071,-0.08096009492874146,-0.07030745595693588,-0.14245499670505524,0.48123452067375183,8.249221801757812
1713723114713250905,0.12357067316770554,-0.012783173471689224,-0.0649811327457428,0.3794809579849243,0.5027823448181152,8.936357498168945
1713723114722250905,0.0884169489145279,0.05645901337265968,-0.0649811327457428,0.30047231912612915,-0.18914192914962769,10.195707321166992
1713723114732250905,-0.037284255027770996,0.10759171098470688,-0.06391586363315582,0.3280056416988373,-0.7876923680305481,10.855310440063477
1713723114742250905,-0.14168016612529755,0.0884169489145279,-0.07776430249214172,0.3926490843296051,-1.0211269855499268,11.216835021972656
1713723114752250905,-0.06391586363315582,-0.004261057823896408,-0.0884169489145279,0.08858545869588852,-0.24061726033687592,8.989029884338379
1713723114761250905,-0.05432848632335663,-0.06285060197114944,-0.08948221057653427,-0.104147769510746,0.50876784324646,8.003816604614258
1713723114772250905,0.10759171098470688,-0.07669904083013535,-0.092678003013134,0.16759411990642548,0.48961424827575684,8.286332130432129
1713723114781250905,0.04261057823896408,-0.02130528911948204,-0.09054747968912125,0.3232172131538391,-0.0694318488240242,9.841365814208984
1713723114791250905,-0.037284255027770996,0.04687163606286049,-0.09054747968912125,0.14245499670505524,-0.9876081943511963,12.051214218139648
1713723114800250905,-0.1533980816602707,0.092678003013134,-0.08628641813993454,0.10773907601833344,-1.4305354356765747,11.821371078491211
1713723114810250905,-0.044741105288267136,0.034088462591171265,-0.092678003013134,0.017956512048840523,-0.7062894701957703,9.674968719482422
1713723114820250905,-0.009587380103766918,-0.020240023732185364,-0.08522115647792816,-0.13527239859104156,0.3603273630142212,7.735665798187256
1713723114829250905,0.19174760580062866,-0.06072007119655609,-0.092678003013134,0.27653029561042786,0.6165069341659546,8.503006935119629
1713723114839250905,0.1672465205192566,-0.03621898964047432,-0.09800432622432709,0.7553706169128418,0.1843535304069519,9.995792388916016
1713723114849250905,0.07563377171754837,0.004261057823896408,-0.10972223430871964,0.6775590777397156,-0.6500257253646851,10.787075996398926
1713723114858250905,-0.09906959533691406,0.044741105288267136,-0.12783172726631165,0.895431399345398,-1.258152961730957,10.650606155395508
1713723114868250905,-0.2130528837442398,0.05965480953454971,-0.15126754343509674,0.9097966551780701,-0.8762778043746948,9.702502250671387
1713723114878250905,-0.15872439742088318,0.03834952041506767,-0.16511598229408264,0.6236895322799683,0.12090718746185303,8.24084186553955
1713723114887250905,-0.05752427875995636,-0.014913702383637428,-0.1810949593782425,0.590170681476593,0.5590460896492004,7.825448036193848
1713723114897250905,0.03834952041506767,-0.03941478580236435,-0.1906823366880417,0.7852981686592102,0.11372458189725876,9.409212112426758
1713723114907250905,0.044741105288267136,-0.022370552644133568,-0.2034655064344406,0.8834604024887085,-1.0007762908935547,12.1194486618042
1713723114917250905,-0.03834952041506767,0.029827404767274857,-0.2045307755470276,0.7194576263427734,-1.6136919260025024,12.494141578674316
1713723114927250905,-0.08628641813993454,0.0649811327457428,-0.21411815285682678,0.6763619780540466,-1.180341362953186,11.265915870666504
1713723114936250905,0.03834952041506767,0.03195793181657791,-0.23116238415241241,0.7673416137695312,-0.1256955862045288,8.38688850402832
1713723114946250905,0.07243797928094864,0.0,-0.24288028478622437,0.9780313968658447,0.3758896589279175,7.483077526092529
1713723114956250905,0.20666129887104034,-0.02876213937997818,-0.27057716250419617,1.1563993692398071,0.2801215946674347,8.74721622467041
1713723114965250905,0.11078750342130661,-0.003195793367922306,-0.27590349316596985,1.1695674657821655,-0.27892449498176575,10.010157585144043
1713723114975250905,-0.03515372797846794,0.023435818031430244,-0.296143501996994,0.7469909191131592,-1.0055646896362305,11.420341491699219
1713723114985250905,-0.15872439742088318,0.05965480953454971,-0.3004045784473419,0.39624038338661194,-0.8319850564002991,10.093954086303711
1713723114994250905,-0.18322548270225525,0.05432848632335663,-0.3057308793067932,0.243011474609375,-0.46088382601737976,9.864110946655273
1713723115004250905,-0.04580637067556381,-0.015978965908288956,-0.3099919557571411,0.0454898327589035,-0.07062894850969315,8.724471092224121
1713723115014250905,-0.029827404767274857,-0.049002163112163544,-0.29827404022216797,-0.07661445438861847,-0.3734954595565796,9.5408935546875
1713723115023250905,0.09800432622432709,-0.034088462591171265,-0.29401299357414246,-0.38546645641326904,-0.9157821536064148,11.0300874710083
1713723115033250905,0.02130528911948204,0.052197955548763275,-0.2727077007293701,-0.5650315880775452,-0.8667010068893433,10.226832389831543
1713723115043250905,-0.002130528911948204,0.10439591109752655,-0.2641855776309967,-0.28730419278144836,-0.5853822827339172,10.292673110961914
1713723115053250905,0.0649811327457428,0.07989483326673508,-0.2652508318424225,-0.016759412363171577,0.05506663769483566,8.516175270080566
1713723115062250905,0.03621898964047432,0.01810949482023716,-0.258859246969223,-0.0347159244120121,0.15562310814857483,8.69334602355957
1713723115072250905,0.07350324839353561,-0.03941478580236435,-0.26738137006759644,-0.13766659796237946,-0.1412578970193863,9.490615844726562
1713723115082250905,-0.022370552644133568,-0.03941478580236435,-0.258859246969223,-0.2561795711517334,-0.4357447028160095,9.876081466674805
1713723115092250905,-0.09693906456232071,-0.012783173471689224,-0.24820661544799805,-0.5051765441894531,-0.4620809257030487,10.532093048095703
1713723115101250905,-0.09693906456232071,0.023435818031430244,-0.23435817658901215,-0.3818751573562622,-0.04189852997660637,9.554061889648438
1713723115111250905,-0.02130528911948204,0.015978965908288956,-0.23329290747642517,-0.11611878126859665,0.2190694510936737,8.615534782409668
1713723115121250905,-0.01810949482023716,0.00532632227987051,-0.21944446861743927,-0.3842693567276001,-0.19273322820663452,9.691728591918945
1713723115130250905,0.02130528911948204,0.008522115647792816,-0.20772656798362732,-0.7685387134552002,-0.9660603404045105,11.164162635803223
1713723115140250905,-0.009587380103766918,0.020240023732185364,-0.1906823366880417,-0.8762778043746948,-1.3263877630233765,11.814188003540039
1713723115150250905,0.04580637067556381,-0.008522115647792816,-0.1768338978290558,-0.8152256608009338,-0.6619967818260193,10.409988403320312
1713723115160250905,0.07030745595693588,-0.022370552644133568,-0.16298545897006989,-0.6655880808830261,0.21188685297966003,8.980650901794434
1713723115169250905,0.1906823366880417,-0.015978965908288956,-0.1533980816602707,-0.3758896589279175,0.5123591423034668,8.198943138122559
1713723115179250905,0.13102751970291138,0.024501081556081772,-0.13528858125209808,-0.4082113802433014,0.4345476031303406,7.927201747894287
1713723115189250905,0.019174760207533836,0.05752427875995636,-0.12250541150569916,-0.6476315259933472,-0.104147769510746,9.949105262756348
1713723115198250905,-0.10013485699892044,0.06178533658385277,-0.11078750342130661,-0.7398083209991455,-0.4836287498474121,10.548852920532227
1713723115208250905,-0.17257283627986908,0.019174760207533836,-0.10013485699892044,-0.6631938815116882,-0.416591078042984,10.983400344848633
1713723115218250905,-0.09480853378772736,-0.0649811327457428,-0.10120011866092682,-0.591367781162262,0.047884032130241394,8.99740982055664
1713723115227250905,-0.07563377171754837,-0.11504855751991272,-0.092678003013134,-0.35673603415489197,0.24660277366638184,8.185775756835938
1713723115237250905,0.05965480953454971,-0.09800432622432709,-0.09161274135112762,-0.07541735470294952,0.05985504016280174,9.277531623840332
1713723115247250905,-0.002130528911948204,0.002130528911948204,-0.07350324839353561,-0.32441431283950806,-0.5961562395095825,10.553641319274902
1713723115256250905,-0.07030745595693588,0.09693906456232071,-0.055393751710653305,-0.5865793824195862,-1.4664485454559326,12.635398864746094
1713723115266250905,0.027696875855326653,0.07669904083013535,-0.05432848632335663,-0.507570743560791,-1.0845733880996704,11.05522632598877
1713723115276250905,0.0649811327457428,0.002130528911948204,-0.047936901450157166,-0.45489832758903503,-0.12449848651885986,8.613140106201172
1713723115286250905,0.1896170675754547,-0.0649811327457428,-0.04687163606286049,-0.22744916379451752,0.3495534360408783,8.56884765625
1713723115295250905,0.2173139452934265,-0.06924218684434891,-0.04367584362626076,0.104147769510746,0.3663128614425659,9.253589630126953
1713723115305250905,0.14274543523788452,-0.044741105288267136,-0.03941478580236435,0.05506663769483566,0.16998831927776337,8.548497200012207
1713723115315250905,-0.047936901450157166,0.007456851191818714,-0.03302319720387459,-0.09935937076807022,-0.365115761756897,9.657011985778809
1713723115325250905,-0.1715075671672821,0.03515372797846794,-0.034088462591171265,-0.104147769510746,-0.5410895943641663,10.020931243896484
1713723115334250905,-0.25353294610977173,0.0649811327457428,-0.026631610468029976,-0.005985504016280174,0.0586579404771328,8.918400764465332
1713723115344524061,-0.1533980816602707,0.026631610468029976,-0.034088462591171265,0.038307227194309235,0.5542576909065247,8.611943244934082
1713723115354524061,-0.08522115647792816,-0.014913702383637428,-0.027696875855326653,-0.06344634294509888,0.4118026793003082,8.506598472595215
1713723115363524061,-0.009587380103766918,-0.037284255027770996,-0.026631610468029976,-0.2825157940387726,-0.5674257874488831,10.986991882324219
1713723115373524061,-0.030892668291926384,-0.006391586735844612,-0.01810949482023716,-0.2106897532939911,-1.7190368175506592,13.184868812561035
1713723115383524061,-0.027696875855326653,0.009587380103766918,-0.017044231295585632,-0.10654197633266449,-1.843535304069519,12.631808280944824
1713723115393524061,0.06285060197114944,-0.024501081556081772,-0.020240023732185364,-0.16639702022075653,-0.6859387755393982,9.809043884277344
1713723115402524061,0.12889699637889862,-0.03195793181657791,-0.019174760207533836,-0.13527239859104156,0.2753331959247589,8.370128631591797
1713723115412524061,0.296143501996994,-0.012783173471689224,-0.019174760207533836,-0.07900865375995636,0.8032546639442444,7.863755226135254
1713723115422524061,0.22370553016662598,0.04048004746437073,-0.002130528911948204,0.05985504016280174,0.5746083855628967,7.897274017333984
1713723115432524061,0.055393751710653305,0.05752427875995636,-0.01065264455974102,0.16639702022075653,-0.46806642413139343,10.06163215637207
1713723115441524061,-0.13635385036468506,0.04048004746437073,-0.019174760207533836,0.16400282084941864,-0.9421183466911316,10.438718795776367
1713723115451524061,-0.28975191712379456,0.013848437927663326,-0.019174760207533836,0.061052143573760986,-0.5027823448181152,9.701305389404297
1713723115461524061,-0.2183792144060135,-0.05326322093605995,-0.024501081556081772,-0.03950432687997818,0.24899697303771973,8.792705535888672
1713723115470524061,-0.14487595856189728,-0.09800432622432709,-0.02130528911948204,-0.17836801707744598,0.3926490843296051,8.234856605529785
1713723115480524061,-0.012783173471689224,-0.08522115647792816,-0.019174760207533836,-0.1364694982767105,-0.1364694982767105,10.038887977600098
1713723115490524061,0.027696875855326653,0.00532632227987051,-0.008522115647792816,0.04908113554120064,-1.0079588890075684,12.082338333129883
1713723115500524061,-0.013848437927663326,0.0884169489145279,-0.003195793367922306,-0.03232172131538391,-1.7836802005767822,12.664129257202148
1713723115509524061,0.07669904083013535,0.07243797928094864,-0.007456851191818714,-0.11971008032560349,-1.2880804538726807,11.03128433227539
1713723115519524061,0.09906959533691406,0.008522115647792816,-0.00532632227987051,-0.12689268589019775,-0.19632454216480255,8.686163902282715
1713723115529524061,0.2514024078845978,-0.03941478580236435,-0.006391586735844612,-0.08140285313129425,0.5422866940498352,7.951143741607666
1713723115538524061,0.22903186082839966,-0.029827404767274857,0.0,-0.05267243832349777,0.6129156351089478,8.719682693481445
1713723115548524061,0.16511598229408264,-0.009587380103766918,0.0,0.08978256583213806,0.05506663769483566,8.772355079650879
1713723115557524061,-0.05326322093605995,0.013848437927663326,-0.002130528911948204,0.10654197633266449,-0.5051765441894531,9.695319175720215
1713723115567524061,-0.2034655064344406,0.02130528911948204,-0.002130528911948204,-0.043095629662275314,-0.5315127968788147,10.053253173828125
1713723115577524061,-0.30360037088394165,0.037284255027770996,0.00532632227987051,-0.19632454216480255,-0.043095629662275314,8.923189163208008
1713723115587524061,-0.16618125140666962,-0.011717909015715122,0.002130528911948204,-0.33997663855552673,0.36152446269989014,8.809465408325195
1713723115596524061,-0.09480853378772736,-0.03941478580236435,0.01810949482023716,-0.48722004890441895,0.3292027413845062,8.87291145324707
1713723115606524061,0.024501081556081772,-0.04048004746437073,0.026631610468029976,-0.5793967843055725,-0.5207388401031494,11.286266326904297
1713723115616524061,0.022370552644133568,0.02130528911948204,0.04687163606286049,-0.477643221616745,-1.5562310218811035,13.21359920501709
1713723115626524061,-0.001065264455974102,0.0649811327457428,0.055393751710653305,-0.35314473509788513,-1.8483237028121948,12.972981452941895
1713723115635524061,0.10013485699892044,0.023435818031430244,0.0511326938867569,-0.3292027413845062,-0.8990226984024048,9.745597839355469
1713723115645524061,0.1161138266324997,-0.019174760207533836,0.055393751710653305,-0.3208230137825012,0.09935937076807022,7.850587368011475
1713723115655524061,0.28549087047576904,-0.049002163112163544,0.05006742849946022,-0.16160860657691956,0.7362170219421387,7.605181694030762
1713723115665524061,0.19174760580062866,-0.015978965908288956,0.06604639440774918,-0.17238251864910126,0.5351040959358215,8.300697326660156
1713723115674524061,0.06072007119655609,0.007456851191818714,0.06072007119655609,-0.3687070608139038,-0.3232172131538391,10.040084838867188
1713723115684524061,-0.11930961906909943,0.03834952041506767,0.07137271761894226,-0.2059013396501541,-0.6799532771110535,9.944316864013672
1713723115693524061,-0.26205503940582275,0.03515372797846794,0.07137271761894226,0.016759412363171577,-0.5159504413604736,9.799467086791992
1713723115703524061,-0.21518342196941376,-0.01065264455974102,0.06711165606975555,0.038307227194309235,0.08140285313129425,8.883685111999512
1713723115713524061,-0.11185276508331299,-0.07137271761894226,0.06178533658385277,-0.11133037507534027,0.416591078042984,8.005013465881348
1713723115722524061,-0.014913702383637428,-0.07456851005554199,0.06604639440774918,-0.1412578970193863,-0.038307227194309235,9.855731010437012
1713723115732524061,0.0511326938867569,-0.012783173471689224,0.07563377171754837,-0.038307227194309235,-1.0271124839782715,12.089521408081055
1713723115742524061,-0.024501081556081772,0.06924218684434891,0.08735168725252151,0.002394201699644327,-2.049436569213867,12.445059776306152
1713723115752524061,0.04367584362626076,0.05006742849946022,0.08096009492874146,0.07182604819536209,-1.8590975999832153,11.91474437713623
1713723115761524061,0.09906959533691406,-0.01810949482023716,0.07776430249214172,-0.29807811975479126,-0.4991910457611084,9.245209693908691
1713723115771524061,0.24181503057479858,-0.047936901450157166,0.07669904083013535,-0.25737667083740234,0.33279404044151306,8.481459617614746
1713723115781524061,0.3185140788555145,-0.03941478580236435,0.07350324839353561,-0.02274491637945175,0.6715735793113708,8.591592788696289
1713723115790524061,0.27164241671562195,0.003195793367922306,0.09054747968912125,-0.22266075015068054,0.6212953329086304,7.524975776672363
1713723115800524061,0.06711165606975555,0.03302319720387459,0.09161274135112762,-0.31124621629714966,-0.035913024097681046,9.173383712768555
1713723115810524061,-0.12676647305488586,0.02876213937997818,0.09054747968912125,-0.16998831927776337,-0.6236895322799683,10.107122421264648
1713723115820524061,-0.3067961633205414,0.03834952041506767,0.09587380290031433,-0.016759412363171577,-0.5997475385665894,9.829395294189453
1713723115829524061,-0.3067961633205414,0.002130528911948204,0.08948221057653427,0.10654197633266449,-0.24660277366638184,10.732008934020996
1713723115839524061,-0.10865697264671326,-0.06604639440774918,0.08735168725252151,0.08499415963888168,0.2609679698944092,8.826224327087402
1713723115849524061,-0.055393751710653305,-0.07669904083013535,0.09374327212572098,-0.3016694188117981,0.06584054231643677,9.276334762573242
1713723115859524061,0.14700649678707123,-0.029827404767274857,0.10013485699892044,-0.4692635238170624,-0.7433996200561523,11.423933029174805
1713723115868524061,0.05006742849946022,0.07669904083013535,0.12357067316770554,-0.04429272934794426,-1.6280571222305298,12.052411079406738
1713723115878524061,0.017044231295585632,0.11504855751991272,0.12463594228029251,0.1388636976480484,-1.668758511543274,12.807782173156738
1713723115888524061,0.12676647305488586,0.07350324839353561,0.1257012039422989,-0.5602431893348694,-0.3124433159828186,8.81664752960205
1713723115897524061,0.13315805792808533,0.024501081556081772,0.14168016612529755,-0.9911994934082031,0.6189011335372925,7.097610950469971
1713723115907524061,0.27483823895454407,-0.013848437927663326,0.15233281254768372,-0.812831461429596,0.8846575021743774,7.575253963470459
1713723115917524061,0.14594122767448425,-0.002130528911948204,0.17044231295585632,-0.772130012512207,0.35673603415489197,8.546102523803711
1713723115926524061,-0.01065264455974102,0.013848437927663326,0.1757686287164688,-0.7050923705101013,-0.651222825050354,10.862492561340332
1713723115936524061,-0.1757686287164688,0.029827404767274857,0.18322548270225525,-0.5231330394744873,-0.7529764175415039,10.23880386352539
1713723115946524061,-0.2407497614622116,0.024501081556081772,0.19600865244865417,-0.5123591423034668,-0.43694180250167847,10.358513832092285
1713723115956524061,-0.07456851005554199,-0.03515372797846794,0.20026971399784088,-0.712274968624115,0.07062894850969315,8.951919555664062
1713723115965524061,-0.04261057823896408,-0.06604639440774918,0.20985709130764008,-0.7422025203704834,0.09696516394615173,8.93156909942627
1713723115975524061,0.14274543523788452,-0.05326322093605995,0.20559602975845337,-0.5494692921638489,-0.3794809579849243,10.261548042297363
1713723115985524061,0.06604639440774918,0.029827404767274857,0.2183792144060135,-0.09576806426048279,-0.9050082564353943,10.663774490356445
1713723115995524061,-0.002130528911948204,0.08628641813993454,0.22050973773002625,-0.08499415963888168,-1.1887211799621582,11.310208320617676
1713723116004524061,0.012783173471689224,0.09054747968912125,0.22903186082839966,-0.4357447028160095,-0.8619126081466675,10.338162422180176
1713723116014524061,0.055393751710653305,0.015978965908288956,0.23009711503982544,-0.38786065578460693,-0.33518823981285095,8.981847763061523
1713723116024524061,0.09054747968912125,-0.04048004746437073,0.23542344570159912,-0.3711012601852417,0.0347159244120121,8.921992301940918
1713723116033524061,0.1576591432094574,-0.047936901450157166,0.23542344570159912,-0.3974374830722809,0.16160860657691956,9.170989036560059
1713723116043524061,0.09054747968912125,-0.004261057823896408,0.24394555389881134,-0.33039984107017517,0.15921440720558167,8.732851028442383
1713723116053524061,-0.017044231295585632,0.044741105288267136,0.250337153673172,-0.20470423996448517,-0.14484919607639313,9.3828763961792
1713723116063524061,-0.11824434995651245,0.06924218684434891,0.25246766209602356,-0.2106897532939911,-0.4884171485900879,10.04846477508545
1713723116072524061,-0.13741911947727203,0.04367584362626076,0.25353294610977173,-0.21547815203666687,-0.9026139974594116,11.259930610656738
1713723116082524061,-0.0511326938867569,-0.0511326938867569,0.2460760921239853,-0.16998831927776337,-0.9528922438621521,10.813411712646484
1713723116092524061,-0.019174760207533836,-0.10013485699892044,0.24181503057479858,0.0035913025494664907,-0.7026981711387634,10.11909294128418
1713723116102524061,0.15020228922367096,-0.07669904083013535,0.2322276532649994,0.12928688526153564,-0.08259996026754379,8.961496353149414
1713723116111524061,0.14168016612529755,0.03195793181657791,0.23861923813819885,-0.14604629576206207,0.36152446269989014,8.24084186553955
1713723116121524061,0.11078750342130661,0.12144014239311218,0.24288028478622437,-0.3100491166114807,-0.02992752008140087,9.733627319335938
1713723116130524061,0.014913702383637428,0.1395496428012848,0.2407497614622116,0.05027823522686958,-0.6236895322799683,10.321403503417969
1713723116140524061,-0.07989483326673508,0.07137271761894226,0.222640261054039,0.40701428055763245,-1.1528080701828003,11.470620155334473
1713723116150524061,-0.06072007119655609,-0.05006742849946022,0.20666129887104034,0.181959331035614,-0.8056488633155823,10.286687850952148
1713723116159524061,-0.058589544147253036,-0.11930961906909943,0.2087918221950531,-0.1364694982767105,0.11372458189725876,8.407238960266113
1713723116169524061,0.08309062570333481,-0.10013485699892044,0.20559602975845337,-0.05626373738050461,0.5781996846199036,8.073247909545898
1713723116179524061,0.06817692518234253,-0.012783173471689224,0.20985709130764008,0.07422025501728058,0.15442600846290588,9.167398452758789
1713723116189524061,0.030892668291926384,0.06285060197114944,0.2087918221950531,0.3016694188117981,-0.790086567401886,11.042057991027832
1713723116198524061,-0.06924218684434891,0.08628641813993454,0.19600865244865417,0.6667851805686951,-1.3922282457351685,11.708843231201172
1713723116208524061,-0.009587380103766918,0.011717909015715122,0.17044231295585632,0.6727706789970398,-0.8882488012313843,10.38724422454834
1713723116218524061,-0.008522115647792816,-0.05645901337265968,0.1619201898574829,0.27653029561042786,-0.07062894850969315,8.71609115600586
1713723116228524061,0.13209278881549835,-0.08096009492874146,0.148071750998497,-0.02274491637945175,0.24660277366638184,8.593986511230469
1713723116237524061,0.12676647305488586,-0.02876213937997818,0.14487595856189728,0.24899697303771973,0.20350714027881622,9.194931030273438
1713723116247524061,0.08096009492874146,0.026631610468029976,0.1342233121395111,0.651222825050354,-0.3016694188117981,9.929951667785645
1713723116256524061,-0.03515372797846794,0.058589544147253036,0.11824434995651245,0.773327112197876,-0.6248866319656372,9.97065258026123
1713723116266524061,-0.1299622654914856,0.05326322093605995,0.10333064943552017,0.7685387134552002,-0.365115761756897,9.807847023010254
1713723116276524061,-0.08096009492874146,0.0,0.09161274135112762,0.4991910457611084,0.08140285313129425,9.103951454162598
1713723116286524061,-0.05965480953454971,-0.044741105288267136,0.08522115647792816,0.2825157940387726,0.08978256583213806,9.148244857788086
1713723116296524061,0.015978965908288956,-0.06072007119655609,0.07243797928094864,0.5722141861915588,-0.3758896589279175,10.301053047180176
1713723116305524061,0.004261057823896408,-0.03621898964047432,0.055393751710653305,1.1216834783554077,-0.9768342971801758,11.39520263671875
1713723116315524061,-0.015978965908288956,-0.001065264455974102,0.026631610468029976,1.2641384601593018,-1.0845733880996704,11.216835021972656
1713723116325524061,0.03621898964047432,0.017044231295585632,0.00532632227987051,1.0223240852355957,-0.529118537902832,9.5995512008667
1713723116335524061,0.06924218684434891,0.02876213937997818,-0.003195793367922306,0.6416460275650024,-0.020350713282823563,8.730456352233887
1713723116344524061,0.14913702011108398,0.03515372797846794,-0.011717909015715122,0.386663556098938,0.07781155407428741,8.912415504455566
1713723116354524061,0.12889699637889862,0.03834952041506767,-0.019174760207533836,0.5410895943641663,-0.06823474913835526,9.512163162231445
1713723116364524061,0.07243797928094864,0.02130528911948204,-0.03195793181657791,0.6141127347946167,-0.23582886159420013,9.800664901733398
1713723116373524061,-0.029827404767274857,-0.004261057823896408,-0.049002163112163544,0.5829880833625793,-0.2968810200691223,9.641449928283691
1713723116383524061,-0.11078750342130661,-0.02876213937997818,-0.06604639440774918,0.4908113479614258,-0.21308395266532898,9.786299705505371
1713723116393524061,-0.12250541150569916,-0.03195793181657791,-0.07563377171754837,0.35913026332855225,-0.0011971008498221636,9.26795482635498
1713723116402524061,-0.06924218684434891,-0.027696875855326653,-0.08735168725252151,0.34356793761253357,0.25977087020874023,8.672995567321777
1713723116412524061,-0.037284255027770996,-0.008522115647792816,-0.09054747968912125,0.325611412525177,0.009576806798577309,9.342174530029297
1713723116422524061,-0.00532632227987051,0.002130528911948204,-0.1022653877735138,0.4692635238170624,-0.9684545993804932,11.340136528015137
1713723116431524061,0.01810949482023716,-0.013848437927663326,-0.11717908829450607,0.7637503147125244,-1.6891093254089355,12.610260009765625
1713723116441524061,0.03302319720387459,-0.04261057823896408,-0.1299622654914856,0.7146691679954529,-1.3946224451065063,11.368866920471191
1713723116451524061,0.08735168725252151,-0.034088462591171265,-0.1395496428012848,0.5722141861915588,-0.5506663918495178,9.607931137084961
1713723116461524061,0.1768338978290558,0.013848437927663326,-0.14487595856189728,0.6009446382522583,0.30885201692581177,8.177395820617676
1713723116470524061,0.1949433982372284,0.06924218684434891,-0.148071750998497,0.5841851830482483,0.7481880187988281,7.684190273284912
1713723116480524061,0.14913702011108398,0.0788295716047287,-0.15659387409687042,0.6967126727104187,0.5386953949928284,8.719682693481445
1713723116490524061,0.052197955548763275,0.04261057823896408,-0.17257283627986908,0.7350199222564697,0.03950432687997818,9.29189682006836
1713723116500524061,-0.10439591109752655,-0.01810949482023716,-0.1949433982372284,0.5865793824195862,-0.6117185354232788,10.049661636352539
1713723116509524061,-0.2322276532649994,-0.06072007119655609,-0.2087918221950531,0.48722004890441895,-0.7613561153411865,10.868478775024414
1713723116519524061,-0.185356006026268,-0.09054747968912125,-0.21944446861743927,0.44173020124435425,-0.29448679089546204,9.962272644042969
1713723116528524061,-0.07456851005554199,-0.07776430249214172,-0.22583605349063873,0.16639702022075653,0.040701426565647125,8.53532886505127
1713723116538524061,0.030892668291926384,-0.01810949482023716,-0.22583605349063873,0.5746083855628967,-0.08738835901021957,9.787496566772461
1713723116548524061,0.1672465205192566,0.047936901450157166,-0.23968449234962463,0.9900023937225342,-0.39145198464393616,10.376469612121582
1713723116558524061,0.08628641813993454,0.08735168725252151,-0.24820661544799805,0.8822633028030396,-1.0283095836639404,10.872069358825684
1713723116567524061,0.002130528911948204,0.0649811327457428,-0.2684466242790222,0.711077868938446,-1.6172832250595093,12.723984718322754
1713723116577524061,0.04261057823896408,-0.009587380103766918,-0.2780340313911438,0.355538934469223,-1.0079588890075684,9.953893661499023
1713723116587524061,0.013848437927663326,-0.06924218684434891,-0.2790992856025696,0.33279404044151306,-0.08738835901021957,7.838616371154785
1713723116596524061,0.1342233121395111,-0.08309062570333481,-0.287621408700943,0.40222588181495667,0.5770025849342346,7.714117527008057
1713723116606524061,0.11504855751991272,-0.026631610468029976,-0.2822950780391693,0.5351040959358215,0.6165069341659546,8.334216117858887
1713723116616524061,0.06285060197114944,0.022370552644133568,-0.28975191712379456,0.5255272388458252,-0.16160860657691956,10.20887565612793
1713723116625524061,-0.0649811327457428,0.07030745595693588,-0.287621408700943,0.25019407272338867,-0.993593692779541,11.044452667236328
1713723116636524061,-0.17363810539245605,0.07456851005554199,-0.2865561246871948,-0.2693476974964142,-1.4652514457702637,12.237961769104004
1713723116645524061,-0.024501081556081772,0.003195793367922306,-0.2822950780391693,-0.5111620426177979,-0.7026981711387634,10.132261276245117
1713723116655524061,-0.001065264455974102,-0.06391586363315582,-0.2695119082927704,-0.295683890581131,0.31842881441116333,7.9631147384643555
1713723116664524061,0.23435817658901215,-0.07989483326673508,-0.26738137006759644,-0.23942016065120697,0.7182605266571045,8.134300231933594
1713723116674524061,0.21092236042022705,-0.011717909015715122,-0.2514024078845978,-0.19393032789230347,0.5506663918495178,9.063250541687012
1713723116684524061,0.12676647305488586,0.044741105288267136,-0.24501082301139832,-0.11013327538967133,-0.19393032789230347,10.127472877502441
1713723116694524061,-0.058589544147253036,0.07989483326673508,-0.24288028478622437,-0.1604115068912506,-0.833182156085968,10.649409294128418
1713723116703524061,-0.20133498311042786,0.08628641813993454,-0.23968449234962463,-0.3890577554702759,-0.7864952683448792,10.516530990600586
1713723116713524061,-0.16831177473068237,0.014913702383637428,-0.23861923813819885,-0.5327098965644836,-0.29209259152412415,9.501389503479004
1713723116723524061,-0.08415588736534119,-0.07030745595693588,-0.23009711503982544,-0.7170634269714355,0.004788403399288654,8.943540573120117
1713723116733524061,0.017044231295585632,-0.08735168725252151,-0.20559602975845337,-0.8259995579719543,-0.10055647045373917,10.101137161254883
1713723116742524061,0.1299622654914856,-0.02556634694337845,-0.18855179846286774,-0.5925649404525757,-0.333991140127182,10.702081680297852
1713723116752524061,0.08309062570333481,0.07137271761894226,-0.16298545897006989,-0.651222825050354,-0.35913026332855225,9.747992515563965
1713723116761524061,0.020240023732185364,0.13741911947727203,-0.13741911947727203,-0.7026981711387634,-0.25737667083740234,9.848548889160156
1713723116771524061,0.047936901450157166,0.10865697264671326,-0.13741911947727203,-0.6991068720817566,-0.06823474913835526,9.606734275817871
1713723116782524061,0.03515372797846794,0.03941478580236435,-0.12357067316770554,-0.9397241473197937,0.02753331884741783,9.066842079162598
1713723116791524061,0.03302319720387459,-0.03302319720387459,-0.11185276508331299,-1.0498573780059814,0.05386953800916672,9.410409927368164
1713723116800524061,0.017044231295585632,-0.05326322093605995,-0.09693906456232071,-0.8978255987167358,0.15562310814857483,9.556455612182617
1713723116810524061,-0.02876213937997818,-0.041545312851667404,-0.08522115647792816,-0.9157821536064148,0.3148375153541565,8.987833023071289
1713723116820524061,-0.06924218684434891,-0.006391586735844612,-0.06604639440774918,-0.7745242118835449,0.31842881441116333,9.097966194152832
1713723116830524061,-0.09480853378772736,0.017044231295585632,-0.05645901337265968,-0.39863458275794983,-0.1364694982767105,10.160991668701172
1713723116839524061,-0.04261057823896408,-0.004261057823896408,-0.049002163112163544,-0.3998316824436188,-0.8188169598579407,11.299434661865234
1713723116849524061,-0.027696875855326653,-0.04687163606286049,-0.034088462591171265,-0.6560112833976746,-1.282094955444336,11.57596492767334
1713723116859524061,0.02130528911948204,-0.05645901337265968,-0.015978965908288956,-0.9014168977737427,-0.9744400978088379,10.878055572509766
1713723116869524061,0.10546118021011353,-0.004261057823896408,0.001065264455974102,-0.7996633648872375,-0.03711012750864029,9.114726066589355
1713723116878524061,0.13209278881549835,0.05965480953454971,0.013848437927663326,-0.547075092792511,0.5734112858772278,8.158242225646973
1713723116888524061,0.1438107043504715,0.08309062570333481,0.022370552644133568,-0.46806642413139343,0.5662286877632141,8.38808536529541
1713723116898524061,0.0788295716047287,0.05752427875995636,0.026631610468029976,-0.46088382601737976,0.0454898327589035,9.348160743713379
1713723116907524061,-0.030892668291926384,0.001065264455974102,0.027696875855326653,-0.43694180250167847,-0.4297592043876648,10.430339813232422
1713723116917524061,-0.12783172726631165,-0.05326322093605995,0.03195793181657791,-0.3758896589279175,-0.3758896589279175,10.145429611206055
1713723116927524061,-0.1395496428012848,-0.08522115647792816,0.03515372797846794,-0.3423708379268646,0.038307227194309235,9.21408462524414
1713723116936524061,-0.09480853378772736,-0.07989483326673508,0.037284255027770996,-0.2298433631658554,0.3890577554702759,8.523358345031738
1713723116946524061,-0.029827404767274857,-0.041545312851667404,0.041545312851667404,-0.004788403399288654,0.21428105235099792,9.26915168762207
1713723116956524061,0.006391586735844612,0.019174760207533836,0.04048004746437073,0.15083470940589905,-0.447715699672699,10.558429718017578
1713723116966524061,0.007456851191818714,0.04261057823896408,0.037284255027770996,0.3758896589279175,-1.2653355598449707,11.841721534729004
1713723116975524061,0.041545312851667404,0.0,0.029827404767274857,0.2669534981250763,-1.4724340438842773,12.034454345703125
1713723116985524061,0.0511326938867569,-0.034088462591171265,0.03302319720387459,-0.09217676520347595,-0.7984662652015686,10.45547866821289
1713723116995524061,0.16085493564605713,-0.027696875855326653,0.030892668291926384,-0.16400282084941864,0.18914192914962769,8.293514251708984
1713723117004524061,0.16085493564605713,0.02556634694337845,0.03621898964047432,-0.19033902883529663,0.773327112197876,7.688978672027588
1713723117014524061,0.13528858125209808,0.06285060197114944,0.04261057823896408,-0.2669534981250763,0.4920084476470947,8.69095230102539
1713723117024524061,0.020240023732185364,0.06178533658385277,0.04580637067556381,-0.22026655077934265,-0.2322375625371933,9.81383228302002
1713723117034524061,-0.11078750342130661,0.026631610468029976,0.044741105288267136,-0.1173158809542656,-0.5590460896492004,10.612298965454102
1713723117043524061,-0.17044231295585632,-0.03195793181657791,0.044741105288267136,-0.304063618183136,-0.304063618183136,10.359710693359375
1713723117053524061,-0.1065264418721199,-0.08948221057653427,0.04580637067556381,-0.4944026470184326,0.1173158809542656,8.797493934631348
1713723117062524061,-0.07030745595693588,-0.09693906456232071,0.04687163606286049,-0.28131869435310364,0.17238251864910126,8.858546257019043
1713723117072524061,0.03834952041506767,-0.058589544147253036,0.04580637067556381,0.09217676520347595,-0.10893617570400238,10.050858497619629
1713723117082524061,0.014913702383637428,0.020240023732185364,0.044741105288267136,0.4213795065879822,-0.5793967843055725,10.539276123046875
1713723117092524061,-0.011717909015715122,0.05752427875995636,0.037284255027770996,0.46088382601737976,-1.1432312726974487,12.036849021911621
1713723117101524061,0.05645901337265968,0.024501081556081772,0.030892668291926384,0.12689268589019775,-1.0079588890075684,11.065999984741211
1713723117111524061,0.049002163112163544,-0.02556634694337845,0.03515372797846794,-0.24660277366638184,-0.4908113479614258,9.422380447387695
1713723117121524061,0.14913702011108398,-0.0511326938867569,0.030892668291926384,-0.19033902883529663,0.07661445438861847,8.619126319885254
1713723117131524061,0.13209278881549835,-0.022370552644133568,0.03621898964047432,0.043095629662275314,0.5027823448181152,8.470685005187988
1713723117140524061,0.1022653877735138,0.015978965908288956,0.04261057823896408,-0.20231004059314728,0.41539397835731506,8.925583839416504
1713723117150524061,-0.001065264455974102,0.05006742849946022,0.05432848632335663,-0.272938996553421,0.043095629662275314,9.297882080078125
1713723117160524061,-0.10759171098470688,0.0511326938867569,0.05752427875995636,-0.07541735470294952,-0.15083470940589905,9.914388656616211
1713723117169524061,-0.16618125140666962,0.022370552644133568,0.06178533658385277,-0.18794482946395874,-0.22026655077934265,10.29865837097168
1713723117179524061,-0.08735168725252151,-0.04367584362626076,0.06072007119655609,-0.3998316824436188,-0.23582886159420013,9.713275909423828
1713723117189524061,-0.08096009492874146,-0.08522115647792816,0.06072007119655609,-0.1975216418504715,-0.3519476354122162,9.612719535827637
1713723117199524061,0.023435818031430244,-0.0788295716047287,0.05326322093605995,0.2693476974964142,-0.6105214357376099,10.351330757141113
1713723117208524061,0.006391586735844612,-0.00532632227987051,0.052197955548763275,0.3064578175544739,-0.7015010714530945,10.767922401428223
1713723117218524061,0.029827404767274857,0.06924218684434891,0.05006742849946022,0.14724339544773102,-0.5530605912208557,10.732008934020996
1713723117227524061,0.09374327212572098,0.0788295716047287,0.04580637067556381,-0.09696516394615173,-0.23702596127986908,9.543288230895996
1713723117237524061,0.08948221057653427,0.05006742849946022,0.05645901337265968,-0.3447650372982025,-0.13287819921970367,9.230844497680664
1713723117247524061,0.1299622654914856,0.0,0.05326322093605995,-0.25977087020874023,-0.004788403399288654,9.149441719055176
1713723117257524061,0.06285060197114944,-0.02876213937997818,0.05432848632335663,-0.09816227108240128,0.0035913025494664907,9.44871711730957
1713723117266524061,0.001065264455974102,-0.04261057823896408,0.05432848632335663,-0.12689268589019775,-0.11133037507534027,9.628281593322754
1713723117276524061,-0.07243797928094864,-0.026631610468029976,0.06072007119655609,-0.1628057062625885,0.0347159244120121,9.062053680419922
1713723117286524061,-0.10972223430871964,0.004261057823896408,0.06604639440774918,-0.24779987335205078,0.1867477297782898,9.18056583404541
1713723117296524061,-0.08735168725252151,0.030892668291926384,0.07350324839353561,-0.3734954595565796,-0.031124621629714966,10.008959770202637
1713723117305524061,-0.01065264455974102,0.002130528911948204,0.06817692518234253,-0.2585737705230713,-0.5351040959358215,10.618284225463867
1713723117315524061,-0.006391586735844612,-0.041545312851667404,0.0649811327457428,0.19153612852096558,-0.9085995554924011,10.931924819946289
1713723117325524061,0.052197955548763275,-0.07030745595693588,0.049002163112163544,0.47405192255973816,-0.6536170244216919,10.336965560913086
1713723117334524061,0.047936901450157166,-0.03195793181657791,0.04580637067556381,0.2932896912097931,-0.10295066982507706,9.35893440246582
1713723117344524061,0.06178533658385277,0.030892668291926384,0.047936901450157166,0.010773907415568829,0.16639702022075653,8.860939979553223
1713723117354524061,0.04367584362626076,0.07243797928094864,0.05432848632335663,-0.1412578970193863,0.1280897855758667,8.984241485595703
1713723117364524061,0.0,0.07350324839353561,0.05752427875995636,-0.13287819921970367,-0.24181437492370605,10.086771965026855
1713723117373524061,-0.004261057823896408,0.014913702383637428,0.05645901337265968,-0.1759738177061081,-0.4058171808719635,10.356119155883789
1713723117383524061,-0.03195793181657791,-0.05752427875995636,0.055393751710653305,-0.19033902883529663,-0.19632454216480255,9.695319175720215
1713723117393524061,0.001065264455974102,-0.09587380290031433,0.05006742849946022,-0.1999158412218094,0.07302314788103104,9.118316650390625
1713723117402524061,0.008522115647792816,-0.0649811327457428,0.05645901337265968,-0.2777273952960968,0.22625206410884857,9.159018516540527
1713723117412524061,0.01065264455974102,0.0,0.06285060197114944,-0.33518823981285095,0.0802057534456253,9.348160743713379
1713723117422524061,-0.04048004746437073,0.05752427875995636,0.07030745595693588,-0.22625206410884857,-0.4405331015586853,10.225635528564453
1713723117432524061,-0.03515372797846794,0.04580637067556381,0.06711165606975555,0.06344634294509888,-1.037886381149292,11.595118522644043
1713723117441524061,0.00532632227987051,-0.034088462591171265,0.06178533658385277,0.2537853717803955,-0.8355763554573059,10.60272216796875
1713723117451524061,0.029827404767274857,-0.08202536404132843,0.055393751710653305,0.12689268589019775,-0.1975216418504715,9.500192642211914
1713723117461524061,0.1395496428012848,-0.06817692518234253,0.055393751710653305,0.0035913025494664907,0.23702596127986908,8.622716903686523
1713723117470524061,0.10972223430871964,0.009587380103766918,0.0649811327457428,-0.05386953800916672,0.31124621629714966,8.239645004272461
1713723117480524061,0.020240023732185364,0.07243797928094864,0.07137271761894226,-0.0933738648891449,-0.28969839215278625,10.307038307189941
1713723117490524061,-0.07989483326673508,0.09054747968912125,0.07350324839353561,0.014365210197865963,-0.8559271097183228,11.139022827148438
1713723117500524061,-0.08415588736534119,0.024501081556081772,0.06604639440774918,-0.05985504016280174,-0.7445967197418213,10.615890502929688
1713723117509524061,-0.049002163112163544,-0.06178533658385277,0.06285060197114944,-0.33518823981285095,-0.009576806798577309,8.886079788208008
1713723117519524061,0.03941478580236435,-0.09374327212572098,0.06924218684434891,-0.3471592366695404,0.5219359397888184,8.245630264282227
1713723117529524061,0.12250541150569916,-0.049002163112163544,0.07563377171754837,-0.19871874153614044,0.47165772318840027,8.916007041931152
1713723117538524061,0.06817692518234253,0.02876213937997818,0.08415588736534119,-0.3447650372982025,-0.03232172131538391,9.890446662902832
1713723117548524061,-0.052197955548763275,0.08628641813993454,0.092678003013134,-0.11372458189725876,-0.9241618514060974,11.638214111328125
1713723117558524061,-0.10333064943552017,0.05432848632335663,0.08202536404132843,0.46806642413139343,-1.2964601516723633,12.112266540527344
1713723117568524061,-0.022370552644133568,-0.04687163606286049,0.06604639440774918,0.15083470940589905,-0.4453215003013611,9.41878890991211
1713723117577524061,0.020240023732185364,-0.09693906456232071,0.06711165606975555,-0.24779987335205078,0.4453215003013611,8.058882713317871
1713723117587524061,0.19387812912464142,-0.08202536404132843,0.0649811327457428,-0.033518824726343155,0.6991068720817566,8.157045364379883
1713723117597524061,0.13741911947727203,-0.01065264455974102,0.07669904083013535,-0.016759412363171577,0.30526071786880493,8.785523414611816
1713723117606524061,0.023435818031430244,0.06391586363315582,0.08735168725252151,-0.09217676520347595,-0.7242460250854492,11.461043357849121
1713723117616524061,-0.11824434995651245,0.10333064943552017,0.09374327212572098,0.035913024097681046,-1.3335703611373901,11.548431396484375
1713723117626524061,-0.16405072808265686,0.06711165606975555,0.0884169489145279,0.12210428714752197,-0.8427590131759644,10.836156845092773
1713723117636524061,-0.03195793181657791,-0.02130528911948204,0.0788295716047287,-0.15682020783424377,0.48722004890441895,7.791929244995117
1713723117645524061,0.034088462591171265,-0.05645901337265968,0.08735168725252151,-0.43095630407333374,0.8786720037460327,7.618349552154541
1713723117655524061,0.18748654425144196,-0.049002163112163544,0.08096009492874146,-0.42377370595932007,0.3208230137825012,9.84376049041748
1713723117665524061,0.0649811327457428,0.017044231295585632,0.092678003013134,-0.07900865375995636,-0.6823474764823914,10.899602890014648
1713723117674524061,-0.09374327212572098,0.05432848632335663,0.08415588736534119,0.4800374209880829,-1.744175910949707,12.291831016540527
1713723117684524061,-0.13102751970291138,0.024501081556081772,0.06924218684434891,0.3842693567276001,-1.314416766166687,11.329361915588379
1713723117694524061,-0.013848437927663326,-0.0511326938867569,0.06178533658385277,-0.04908113554120064,0.16759411990642548,7.924807548522949
1713723117703524061,0.06072007119655609,-0.07456851005554199,0.06711165606975555,-0.2693476974964142,0.9097966551780701,7.59560489654541
1713723117713524061,0.24714134633541107,-0.0511326938867569,0.06924218684434891,-0.17238251864910126,0.8583213090896606,8.853757858276367
1713723117723524061,0.1619201898574829,0.01810949482023716,0.08415588736534119,-0.014365210197865963,0.2992752194404602,9.349357604980469
1713723117733524061,0.011717909015715122,0.06817692518234253,0.08948221057653427,0.09935937076807022,-0.871489405632019,11.659762382507324
1713723117742524061,-0.14594122767448425,0.08522115647792816,0.08415588736534119,0.20111294090747833,-1.2856862545013428,10.934318542480469
1713723117752524061,-0.21944446861743927,0.055393751710653305,0.08309062570333481,0.016759412363171577,-0.6021417379379272,10.272322654724121
1713723117762524061,-0.05752427875995636,-0.02876213937997818,0.07456851005554199,-0.2801215946674347,0.5255272388458252,8.145073890686035
1713723117771524061,-0.015978965908288956,-0.058589544147253036,0.08202536404132843,-0.3411737382411957,0.5841851830482483,8.073247909545898
1713723117781524061,0.14274543523788452,-0.0511326938867569,0.07776430249214172,-0.24660277366638184,-0.24420857429504395,10.471040725708008
1713723117791524061,0.04367584362626076,0.02130528911948204,0.08415588736534119,0.25977087020874023,-1.0438718795776367,11.232397079467773
1713723117800524061,-0.06072007119655609,0.05965480953454971,0.06924218684434891,0.6584054827690125,-1.2761094570159912,11.597513198852539
1713723117810524061,-0.01065264455974102,0.04580637067556381,0.058589544147253036,0.32202011346817017,-0.4141968786716461,9.593565940856934
1713723117820524061,0.03302319720387459,0.0,0.05326322093605995,-0.02753331884741783,0.46327802538871765,7.858966827392578
1713723117830524061,0.13848437368869781,-0.034088462591171265,0.047936901450157166,-0.021547814831137657,0.7182605266571045,7.971494197845459
1713723117840239959,0.14168016612529755,-0.024501081556081772,0.05006742849946022,0.23702596127986908,0.264559268951416,9.47265911102295
1713723117850239959,0.05006742849946022,0.0,0.044741105288267136,0.3315969407558441,-0.46567222476005554,10.408791542053223
1713723117860239959,-0.09906959533691406,0.02876213937997818,0.037284255027770996,0.4967968463897705,-0.8403647541999817,10.60511589050293
1713723117869239959,-0.19174760580062866,0.03515372797846794,0.02876213937997818,0.36750996112823486,-0.6703764796257019,10.755950927734375
1713723117879239959,-0.06285060197114944,-0.006391586735844612,0.027696875855326653,-0.005985504016280174,0.06344634294509888,9.029731750488281
1713723117889239959,-0.022370552644133568,-0.03834952041506767,0.02876213937997818,-0.1975216418504715,0.37828385829925537,8.62391471862793
1713723117899239959,0.13315805792808533,-0.047936901450157166,0.022370552644133568,-0.07541735470294952,-0.1604115068912506,10.128669738769531
1713723117908239959,0.08415588736534119,0.001065264455974102,0.02130528911948204,0.40462008118629456,-0.9504980444908142,11.354501724243164
1713723117918239959,0.01810949482023716,0.03941478580236435,0.007456851191818714,0.5578489899635315,-1.1192892789840698,11.101913452148438
1713723117928239959,-0.04580637067556381,0.05645901337265968,0.001065264455974102,0.4189852774143219,-0.49320554733276367,9.709684371948242
1713723117937239959,0.024501081556081772,0.017044231295585632,-0.012783173471689224,0.1304839849472046,0.243011474609375,8.463502883911133
1713723117947239959,0.041545312851667404,-0.014913702383637428,-0.007456851191818714,-0.15562310814857483,0.5003881454467773,8.449137687683105
1713723117957239959,0.11930961906909943,-0.04367584362626076,-0.012783173471689224,-0.16759411990642548,0.31842881441116333,9.159018516540527
1713723117967239959,0.05432848632335663,-0.030892668291926384,-0.008522115647792816,0.15322890877723694,-0.06344634294509888,9.66658878326416
1713723117976239959,-0.04687163606286049,-0.015978965908288956,-0.011717909015715122,0.2777273952960968,-0.591367781162262,10.878055572509766
1713723117986239959,-0.12676647305488586,0.011717909015715122,-0.008522115647792816,0.023942016065120697,-0.5853822827339172,10.532093048095703
1713723117996239959,-0.08415588736534119,0.012783173471689224,-0.006391586735844612,-0.18555063009262085,-0.21547815203666687,9.787496566772461
1713723118006239959,0.001065264455974102,-0.011717909015715122,-0.002130528911948204,-0.4908113479614258,0.08619125932455063,9.117119789123535
1713723118015239959,0.07563377171754837,-0.015978965908288956,0.004261057823896408,-0.4034229815006256,-0.040701426565647125,9.725247383117676
1713723118025239959,0.12889699637889862,-0.006391586735844612,0.002130528911948204,0.011971008032560349,-0.4537012279033661,10.618284225463867
1713723118034239959,0.06072007119655609,0.015978965908288956,0.001065264455974102,0.17477671802043915,-0.7350199222564697,10.127472877502441
1713723118044239959,-0.03834952041506767,0.020240023732185364,-0.00532632227987051,0.2801215946674347,-0.6428431272506714,10.166976928710938
1713723118054239959,-0.044741105288267136,0.004261057823896408,-0.009587380103766918,0.3280056416988373,-0.1759738177061081,9.62947940826416
1713723118064239959,-0.013848437927663326,-0.019174760207533836,-0.011717909015715122,0.06703764945268631,0.2669534981250763,8.439560890197754
1713723118073239959,0.019174760207533836,-0.023435818031430244,-0.009587380103766918,-0.05626373738050461,0.3519476354122162,8.961496353149414
1713723118083239959,0.05432848632335663,-0.012783173471689224,-0.007456851191818714,0.06823474913835526,0.17238251864910126,9.739612579345703
1713723118093239959,0.02556634694337845,0.004261057823896408,-0.00532632227987051,-0.061052143573760986,-0.14006079733371735,9.88086986541748
1713723118103239959,-0.02876213937997818,0.015978965908288956,-0.00532632227987051,-0.15921440720558167,-0.39863458275794983,10.195707321166992
1713723118112239959,-0.05965480953454971,0.007456851191818714,-0.008522115647792816,-0.13287819921970367,-0.3232172131538391,10.418368339538574
1713723118122239959,-0.02130528911948204,-0.019174760207533836,-0.007456851191818714,-0.3172317147254944,-0.014365210197865963,9.582792282104492
1713723118132239959,-0.007456851191818714,-0.029827404767274857,-0.004261057823896408,-0.45489832758903503,0.0933738648891449,9.162610054016113
1713723118141239959,0.041545312851667404,-0.027696875855326653,-0.002130528911948204,-0.15442600846290588,-0.17836801707744598,9.807847023010254
1713723118151239959,-0.002130528911948204,-0.011717909015715122,-0.001065264455974102,0.2513911724090576,-0.7314286231994629,10.483012199401855
1713723118161239959,-0.03834952041506767,-0.012783173471689224,-0.007456851191818714,0.37229835987091064,-1.1049240827560425,11.492168426513672
1713723118170239959,0.011717909015715122,-0.03621898964047432,-0.013848437927663326,0.4058171808719635,-0.5973533391952515,10.217255592346191
1713723118180239959,0.03195793181657791,-0.037284255027770996,-0.014913702383637428,0.2346317619085312,0.08619125932455063,9.028534889221191
1713723118190239959,0.148071750998497,-0.01065264455974102,-0.012783173471689224,0.013168109580874443,0.46327802538871765,8.456319808959961
1713723118200239959,0.13315805792808533,0.037284255027770996,-0.007456851191818714,0.017956512048840523,0.5039794445037842,8.486248016357422
1713723118209239959,0.08628641813993454,0.05432848632335663,-0.00532632227987051,-0.07781155407428741,0.12330138683319092,9.657011985778809
1713723118219239959,-0.014913702383637428,0.03515372797846794,-0.008522115647792816,-0.1149216815829277,-0.3543418347835541,10.030508041381836
1713723118229239959,-0.13102751970291138,-0.007456851191818714,-0.015978965908288956,-0.017956512048840523,-0.50876784324646,10.222043991088867
1713723118239239959,-0.14061491191387177,-0.06072007119655609,-0.019174760207533836,-0.028730420395731926,-0.15921440720558167,9.703699111938477
1713723118248239959,-0.10546118021011353,-0.08628641813993454,-0.015978965908288956,-0.25019407272338867,0.27653029561042786,8.944737434387207
1713723118258239959,-0.02130528911948204,-0.05432848632335663,-0.00532632227987051,-0.295683890581131,0.31124621629714966,9.135076522827148
1713723118268239959,0.026631610468029976,0.013848437927663326,0.00532632227987051,0.05746084079146385,-0.28730419278144836,10.317811965942383
1713723118277239959,0.006391586735844612,0.0649811327457428,0.006391586735844612,0.4596867263317108,-1.1671732664108276,11.706448554992676
1713723118287239959,0.047936901450157166,0.03834952041506767,-0.00532632227987051,0.5015852451324463,-1.313219666481018,11.662156105041504
1713723118297239959,0.044741105288267136,-0.01065264455974102,-0.006391586735844612,0.3016694188117981,-0.5817909836769104,10.105925559997559
1713723118306239959,0.13635385036468506,-0.03621898964047432,-0.013848437927663326,0.09816227108240128,0.16519992053508759,8.880093574523926
1713723118316239959,0.15978966653347015,0.002130528911948204,-0.009587380103766918,-0.06224924325942993,0.5506663918495178,8.471882820129395
1713723118326239959,0.14487595856189728,0.044741105288267136,-0.006391586735844612,-0.07302314788103104,0.6500257253646851,7.955932140350342
1713723118336239959,0.041545312851667404,0.06391586363315582,-0.006391586735844612,-0.05027823522686958,0.40462008118629456,8.401253700256348
1713723118345239959,-0.08309062570333481,0.044741105288267136,-0.011717909015715122,-0.14245499670505524,-0.06224924325942993,9.87967300415039
1713723118355239959,-0.19387812912464142,0.013848437927663326,-0.011717909015715122,-0.22505494952201843,-0.2621650695800781,10.256759643554688
1713723118365239959,-0.20240023732185364,-0.04048004746437073,-0.011717909015715122,-0.2513911724090576,-0.16160860657691956,9.93833065032959
1713723118374239959,-0.13635385036468506,-0.08628641813993454,-0.007456851191818714,-0.43335050344467163,0.061052143573760986,9.405621528625488
1713723118384239959,-0.06604639440774918,-0.07137271761894226,0.001065264455974102,-0.3543418347835541,-0.16639702022075653,10.236409187316895
1713723118394239959,0.02556634694337845,-0.009587380103766918,0.006391586735844612,0.08379705995321274,-0.7984662652015686,11.116278648376465
1713723118403239959,0.015978965908288956,0.055393751710653305,0.007456851191818714,0.5231330394744873,-1.3934253454208374,11.659762382507324
1713723118413239959,0.08735168725252151,0.047936901450157166,-0.003195793367922306,0.5386953949928284,-1.1695674657821655,11.189301490783691
1713723118423239959,0.10333064943552017,0.034088462591171265,0.003195793367922306,0.15322890877723694,-0.29807811975479126,9.758766174316406
1713723118432239959,0.22477079927921295,0.024501081556081772,0.001065264455974102,-0.26336216926574707,0.5339069962501526,8.523358345031738
1713723118443239959,0.1992044448852539,0.04580637067556381,0.01065264455974102,-0.16879121959209442,0.833182156085968,7.82305383682251
1713723118452239959,0.11717908829450607,0.03834952041506767,0.007456851191818714,0.090979665517807,0.3734954595565796,8.379705429077148
1713723118462239959,-0.02556634694337845,0.012783173471689224,-0.002130528911948204,0.020350713282823563,-0.15083470940589905,9.070432662963867
1713723118472239959,-0.18642127513885498,-0.015978965908288956,-0.013848437927663326,-0.019153613597154617,-0.33279404044151306,9.919177055358887
1713723118481239959,-0.2822950780391693,-0.027696875855326653,-0.014913702383637428,-0.08499415963888168,-0.15322890877723694,9.81383228302002
1713723118491239959,-0.19707392156124115,-0.052197955548763275,-0.01065264455974102,-0.2322375625371933,0.07062894850969315,9.45111083984375
1713723118500239959,-0.10120011866092682,-0.06072007119655609,-0.006391586735844612,-0.38067805767059326,0.17238251864910126,9.408015251159668
1713723118510239959,0.014913702383637428,-0.027696875855326653,0.002130528911948204,-0.1951274424791336,-0.3663128614425659,11.036072731018066
1713723118520239959,0.07456851005554199,0.03195793181657791,0.003195793367922306,0.27413609623908997,-1.193509578704834,12.197259902954102
1713723118530239959,0.03302319720387459,0.07669904083013535,0.0,0.50876784324646,-1.425747036933899,11.5065336227417
1713723118539239959,0.08309062570333481,0.04580637067556381,-0.01065264455974102,0.3579331338405609,-0.7098807692527771,9.96825885772705
1713723118549239959,0.07989483326673508,0.006391586735844612,-0.007456851191818714,0.08140285313129425,0.13168108463287354,8.884881973266602
1713723118559239959,0.185356006026268,-0.01810949482023716,-0.01065264455974102,-0.16519992053508759,0.6141127347946167,8.098386764526367
1713723118568239959,0.1342233121395111,0.002130528911948204,-0.001065264455974102,-0.10055647045373917,0.6631938815116882,7.977479934692383
1713723118578239959,0.04367584362626076,0.017044231295585632,-0.001065264455974102,0.0586579404771328,0.13766659796237946,9.184157371520996
1713723118588239959,-0.09374327212572098,0.024501081556081772,-0.008522115647792816,0.02513911761343479,-0.333991140127182,9.856927871704102
1713723118598239959,-0.2130528837442398,0.024501081556081772,-0.009587380103766918,-0.09816227108240128,-0.32202011346817017,10.20767879486084
1713723118608239959,-0.2034655064344406,0.0,-0.006391586735844612,-0.19393032789230347,-0.04429272934794426,9.979032516479492
1713723118617239959,-0.10013485699892044,-0.0511326938867569,-0.006391586735844612,-0.39145198464393616,0.20231004059314728,9.247604370117188
1713723118627239959,-0.029827404767274857,-0.052197955548763275,0.001065264455974102,-0.34356793761253357,0.009576806798577309,9.919177055358887
1713723118637239959,0.07563377171754837,-0.012783173471689224,0.002130528911948204,-0.03232172131538391,-0.5949591398239136,10.78468132019043
1713723118646239959,0.009587380103766918,0.055393751710653305,0.006391586735844612,0.3172317147254944,-1.212663173675537,10.991780281066895
1713723118656239959,-0.013848437927663326,0.06285060197114944,-0.006391586735844612,0.47405192255973816,-1.2078747749328613,11.449071884155273
1713723118666239959,0.05326322093605995,0.014913702383637428,-0.011717909015715122,0.16639702022075653,-0.2968810200691223,9.466672897338867
1713723118675239959,0.08309062570333481,-0.02130528911948204,-0.01065264455974102,-0.031124621629714966,0.32202011346817017,8.69214916229248
1713723118685239959,0.18429075181484222,-0.027696875855326653,-0.015978965908288956,-0.047884032130241394,0.591367781162262,8.379705429077148
1713723118695239959,0.11504855751991272,0.002130528911948204,-0.007456851191818714,-0.011971008032560349,0.45489832758903503,8.027758598327637
1713723118705239959,-0.012783173471689224,0.02130528911948204,-0.013848437927663326,0.008379706181585789,-0.28730419278144836,10.040084838867188
1713723118714239959,-0.13848437368869781,0.027696875855326653,-0.019174760207533836,0.05147533491253853,-0.6189011335372925,10.578780174255371
1713723118724239959,-0.2364886999130249,0.015978965908288956,-0.014913702383637428,-0.0011971008498221636,-0.46088382601737976,10.460267066955566
1713723118733239959,-0.12463594228029251,-0.034088462591171265,-0.013848437927663326,-0.23942016065120697,-0.02992752008140087,9.39245319366455
1713723118743239959,-0.08415588736534119,-0.047936901450157166,-0.002130528911948204,-0.47644612193107605,0.15682020783424377,8.89685344696045
1713723118753239959,0.05752427875995636,-0.030892668291926384,0.002130528911948204,-0.38786065578460693,-0.2992752194404602,10.163386344909668
1713723118763239959,0.034088462591171265,0.03834952041506767,0.01065264455974102,0.13766659796237946,-1.0510544776916504,11.45146656036377
1713723118772239959,0.002130528911948204,0.06924218684434891,0.003195793367922306,0.4357447028160095,-1.3742717504501343,11.974599838256836
1713723118782239959,0.055393751710653305,0.04367584362626076,-0.004261057823896408,0.181959331035614,-0.5494692921638489,9.862914085388184
1713723118792239959,0.052197955548763275,0.008522115647792816,0.001065264455974102,-0.14844051003456116,0.3016694188117981,8.361749649047852
1713723118802239959,0.16085493564605713,-0.012783173471689224,-0.003195793367922306,-0.20111294090747833,0.5997475385665894,7.751227855682373
1713723118811239959,0.09906959533691406,0.00532632227987051,0.002130528911948204,-0.008379706181585789,0.48602294921875,8.459911346435547
1713723118821239959,0.014913702383637428,0.014913702383637428,-0.002130528911948204,0.11611878126859665,-0.1173158809542656,9.995792388916016
1713723118831239959,-0.11930961906909943,0.017044231295585632,-0.01065264455974102,0.12449848651885986,-0.6440402269363403,10.292673110961914
1713723118840239959,-0.22477079927921295,0.007456851191818714,-0.014913702383637428,0.10534487664699554,-0.6979097723960876,10.848127365112305
1713723118850239959,-0.12889699637889862,-0.03621898964047432,-0.014913702383637428,-0.03711012750864029,-0.20709843933582306,9.653421401977539
1713723118860239959,-0.07669904083013535,-0.05326322093605995,-0.009587380103766918,-0.37828385829925537,0.14006079733371735,8.795100212097168
1713723118870239959,0.06924218684434891,-0.030892668291926384,-0.003195793367922306,-0.24181437492370605,0.010773907415568829,9.678560256958008
1713723118879239959,0.08415588736534119,0.03941478580236435,0.003195793367922306,0.07422025501728058,-0.5554547905921936,10.928333282470703
1713723118889239959,0.041545312851667404,0.09480853378772736,0.006391586735844612,0.009576806798577309,-1.0857704877853394,11.21444034576416
1713723118899239959,-0.01065264455974102,0.08628641813993454,0.001065264455974102,0.11372458189725876,-0.93254154920578,10.857704162597656
1713723118908239959,0.029827404767274857,0.009587380103766918,-0.009587380103766918,-0.0035913025494664907,-0.23343466222286224,9.263166427612305
1713723118918239959,0.04367584362626076,-0.05326322093605995,-0.011717909015715122,-0.24061726033687592,0.272938996553421,8.219294548034668
1713723118928239959,0.10972223430871964,-0.06604639440774918,-0.015978965908288956,-0.0454898327589035,0.4034229815006256,8.514978408813477
1713723118937239959,0.052197955548763275,-0.03302319720387459,-0.013848437927663326,0.08140285313129425,0.28131869435310364,8.617928504943848
1713723118947239959,-0.052197955548763275,0.013848437927663326,-0.014913702383637428,0.05267243832349777,-0.30286651849746704,9.989806175231934
1713723118957239959,-0.16298545897006989,0.04580637067556381,-0.015978965908288956,0.0347159244120121,-0.8176198601722717,10.891222953796387
1713723118967239959,-0.14274543523788452,0.019174760207533836,-0.015978965908288956,-0.16519992053508759,-0.9397241473197937,11.280281066894531
1713723118976239959,-0.04580637067556381,-0.0649811327457428,-0.014913702383637428,-0.363918662071228,-0.5662286877632141,10.113107681274414
1713723118986239959,0.03195793181657791,-0.09480853378772736,-0.011717909015715122,-0.23822306096553802,-0.21188685297966003,9.849745750427246
1713723118996239959,0.19281286001205444,-0.06604639440774918,-0.014913702383637428,0.12689268589019775,0.12210428714752197,9.23323917388916
1713723119005239959,0.13741911947727203,0.020240023732185364,-0.006391586735844612,0.19393032789230347,0.031124621629714966,8.860939979553223
1713723119015239959,0.03834952041506767,0.08522115647792816,-0.003195793367922306,0.061052143573760986,-0.6021417379379272,10.412383079528809
1713723119025239959,-0.06924218684434891,0.10439591109752655,-0.003195793367922306,0.014365210197865963,-0.6260837316513062,10.030508041381836
1713723119034239959,-0.11504855751991272,0.052197955548763275,-0.006391586735844612,0.008379706181585789,-0.33518823981285095,10.11909294128418
1713723119044239959,-0.058589544147253036,-0.04261057823896408,-0.015978965908288956,-0.1412578970193863,0.0586579404771328,9.11233139038086
1713723119054239959,-0.03621898964047432,-0.09906959533691406,-0.015978965908288956,-0.16759411990642548,0.304063618183136,8.609549522399902
1713723119064239959,0.06285060197114944,-0.09587380290031433,-0.022370552644133568,-0.031124621629714966,0.3902548849582672,8.851363182067871
1713723119074239959,0.015978965908288956,-0.03195793181657791,-0.01810949482023716,0.03711012750864029,0.1173158809542656,9.162610054016113
1713723119083239959,-0.07030745595693588,0.034088462591171265,-0.012783173471689224,0.1173158809542656,-0.8319850564002991,11.433509826660156
1713723119093239959,-0.12357067316770554,0.06072007119655609,-0.006391586735844612,-0.06703764945268631,-1.3970166444778442,12.369643211364746
1713723119103239959,-0.003195793367922306,0.0,-0.003195793367922306,-0.47644612193107605,-0.970848798751831,10.78228759765625
1713723119112239959,0.014913702383637428,-0.06604639440774918,0.003195793367922306,-0.4189852774143219,-0.32441431283950806,9.185354232788086
1713723119122239959,0.2045307755470276,-0.09480853378772736,-0.004261057823896408,0.07541735470294952,0.18555063009262085,8.50061321258545
1713723119132239959,0.17363810539245605,-0.03834952041506767,0.0,0.22864626348018646,0.17956513166427612,9.350554466247559
1713723119141239959,0.12357067316770554,0.014913702383637428,-0.002130528911948204,0.090979665517807,-0.19273322820663452,9.50498104095459
1713723119151239959,-0.026631610468029976,0.06817692518234253,0.003195793367922306,0.040701426565647125,-0.3926490843296051,9.21288776397705
1713723119161239959,-0.13635385036468506,0.07030745595693588,0.0,-0.03232172131538391,-0.34835633635520935,9.866504669189453
1713723119171239959,-0.16831177473068237,0.029827404767274857,0.0,0.0011971008498221636,-0.0454898327589035,9.736021041870117
1713723119180239959,-0.09161274135112762,-0.0511326938867569,-0.009587380103766918,-0.005985504016280174,0.3495534360408783,8.426392555236816
1713723119190239959,-0.06817692518234253,-0.0884169489145279,-0.009587380103766918,-0.0694318488240242,0.3363853394985199,8.578424453735352
1713723119200239959,0.013848437927663326,-0.07243797928094864,-0.007456851191818714,0.015562310814857483,-0.2561795711517334,10.400411605834961
1713723119210239959,-0.05006742849946022,0.002130528911948204,0.00532632227987051,0.11611878126859665,-1.1037269830703735,11.640608787536621
1713723119219239959,-0.07030745595693588,0.055393751710653305,0.01065264455974102,-0.05626373738050461,-1.668758511543274,13.141773223876953
1713723119229239959,0.07563377171754837,0.01810949482023716,0.007456851191818714,-0.32680851221084595,-1.0235211849212646,10.699687004089355
1713723119239239959,0.09693906456232071,-0.02876213937997818,0.008522115647792816,-0.08738835901021957,-0.22864626348018646,8.89565658569336
1713723119248239959,0.3004045784473419,-0.06391586363315582,-0.006391586735844612,0.14724339544773102,0.4141968786716461,8.106766700744629
1713723119258239959,0.21624867618083954,-0.02130528911948204,0.004261057823896408,-0.020350713282823563,0.43694180250167847,8.47667121887207
1713723119268239959,0.14594122767448425,0.006391586735844612,-0.008522115647792816,-0.18914192914962769,0.031124621629714966,9.218873023986816
1713723119277239959,-0.04048004746437073,0.03302319720387459,0.003195793367922306,0.031124621629714966,-0.22625206410884857,8.967482566833496
1713723119287239959,-0.1906823366880417,0.027696875855326653,0.0,0.10654197633266449,-0.41778817772865295,9.93833065032959
1713723119297239959,-0.2695119082927704,0.01810949482023716,0.003195793367922306,0.010773907415568829,-0.0933738648891449,9.081207275390625
1713723119306239959,-0.17363810539245605,-0.03834952041506767,-0.006391586735844612,0.10654197633266449,0.25977087020874023,8.704119682312012
1713723119316239959,-0.11185276508331299,-0.07137271761894226,-0.004261057823896408,0.06224924325942993,0.35673603415489197,9.215282440185547
1713723119326239959,0.03515372797846794,-0.058589544147253036,-0.002130528911948204,-0.010773907415568829,-0.09935937076807022,10.235212326049805
1713723119335239959,0.023435818031430244,0.014913702383637428,0.008522115647792816,0.07302314788103104,-1.0510544776916504,12.012907028198242
1713723119345239959,-0.013848437927663326,0.0788295716047287,0.011717909015715122,-0.043095629662275314,-1.6292542219161987,12.24155330657959
1713723119355239959,0.0511326938867569,0.049002163112163544,0.002130528911948204,-0.17238251864910126,-1.212663173675537,10.730812072753906
1713723119365239959,0.0788295716047287,-0.026631610468029976,-0.003195793367922306,-0.0933738648891449,-0.4704606235027313,9.194931030273438
1713723119375239959,0.18855179846286774,-0.08202536404132843,-0.01065264455974102,0.11013327538967133,0.10893617570400238,8.949525833129883
1713723119384239959,0.21198762953281403,-0.07456851005554199,-0.013848437927663326,0.05626373738050461,0.3734954595565796,9.283516883850098
1713723119394239959,0.16298545897006989,-0.03834952041506767,-0.009587380103766918,-0.0011971008498221636,0.37229835987091064,7.952340602874756
1713723119404239959,0.002130528911948204,0.012783173471689224,-0.003195793367922306,0.1867477297782898,0.02753331884741783,8.778340339660645
1713723119413239959,-0.09906959533691406,0.02876213937997818,-0.003195793367922306,0.10773907601833344,-0.14604629576206207,9.72404956817627
1713723119423239959,-0.21411815285682678,0.047936901450157166,0.004261057823896408,0.04908113554120064,0.017956512048840523,9.173383712768555
1713723119433239959,-0.2364886999130249,0.03195793181657791,-0.001065264455974102,0.07541735470294952,0.014365210197865963,9.642646789550781
1713723119443239959,-0.11717908829450607,-0.015978965908288956,0.0,0.0694318488240242,-0.02513911761343479,9.215282440185547
1713723119452239959,-0.10546118021011353,-0.058589544147253036,0.002130528911948204,-0.07900865375995636,-0.5781996846199036,10.600327491760254
1713723119462239959,-0.009587380103766918,-0.0511326938867569,0.004261057823896408,-0.11851298063993454,-1.3910311460494995,12.270283699035645
1713723119472239959,0.007456851191818714,0.001065264455974102,0.004261057823896408,0.047884032130241394,-1.5693992376327515,12.363656997680664
1713723119481239959,0.10865697264671326,0.015978965908288956,-0.003195793367922306,0.05147533491253853,-0.9062053561210632,10.806229591369629
1713723119491239959,0.14594122767448425,0.023435818031430244,0.001065264455974102,0.1388636976480484,-0.13766659796237946,8.969876289367676
1713723119501239959,0.2737729549407959,0.01065264455974102,-0.009587380103766918,0.15322890877723694,0.5015852451324463,7.643488883972168
1713723119511239959,0.20559602975845337,0.03195793181657791,0.001065264455974102,0.09217676520347595,0.6847416758537292,7.677007675170898
1713723119520239959,0.10333064943552017,0.03302319720387459,0.003195793367922306,0.026336219161748886,0.22744916379451752,9.05606746673584
1713723119530239959,-0.05645901337265968,0.029827404767274857,0.004261057823896408,-0.07661445438861847,-0.10295066982507706,9.11233139038086
1713723119539239959,-0.22050973773002625,0.011717909015715122,0.001065264455974102,-0.03232172131538391,-0.07422025501728058,9.400833129882812
1713723119549239959,-0.2908172011375427,-0.009587380103766918,0.001065264455974102,0.08140285313129425,0.09816227108240128,9.510966300964355
1713723119559239959,-0.1992044448852539,-0.0649811327457428,-0.00532632227987051,0.17238251864910126,0.14484919607639313,8.953117370605469
1713723119569239959,-0.15978966653347015,-0.08415588736534119,-0.004261057823896408,-0.10175357013940811,-0.24779987335205078,9.882067680358887
1713723119578239959,-0.049002163112163544,-0.04687163606286049,0.002130528911948204,-0.19393032789230347,-1.1037269830703735,11.926715850830078
1713723119588239959,0.0,0.03302319720387459,0.009587380103766918,-0.06584054231643677,-1.8291701078414917,13.290213584899902
1713723119598239959,0.11930961906909943,0.049002163112163544,0.006391586735844612,-0.10295066982507706,-1.5514426231384277,12.078747749328613
1713723119608239959,0.16298545897006989,0.034088462591171265,0.012783173471689224,-0.0347159244120121,-0.6009446382522583,9.533711433410645
1713723119617239959,0.3067961633205414,0.002130528911948204,0.003195793367922306,0.1975216418504715,0.363918662071228,7.802703380584717
1713723119627239959,0.26205503940582275,0.011717909015715122,0.007456851191818714,0.07781155407428741,0.7996633648872375,7.6075758934021
1713723119637239959,0.1810949593782425,0.02130528911948204,0.012783173471689224,-0.1256955862045288,0.5111620426177979,7.952340602874756
1713723119646239959,-0.011717909015715122,0.02130528911948204,0.006391586735844612,0.06823474913835526,0.03711012750864029,8.359354972839355
1713723119656239959,-0.22050973773002625,0.009587380103766918,0.0,0.020350713282823563,-0.3196259140968323,9.616311073303223
1713723119666239959,-0.3568635880947113,0.009587380103766918,-0.001065264455974102,-0.08978256583213806,-0.1975216418504715,9.832985877990723
1713723119676239959,-0.28016453981399536,-0.03834952041506767,0.001065264455974102,-0.05626373738050461,-0.09457096457481384,10.056843757629395
1713723119685239959,-0.148071750998497,-0.10333064943552017,-0.003195793367922306,-0.047884032130241394,-0.22266075015068054,10.216058731079102
1713723119695239959,0.009587380103766918,-0.07030745595693588,0.00532632227987051,0.10654197633266449,-0.7326257228851318,10.91037654876709
1713723119705239959,0.09906959533691406,0.009587380103766918,0.002130528911948204,0.2214636504650116,-1.4903905391693115,12.018892288208008
1713723119714239959,0.06817692518234253,0.1203748807311058,0.01810949482023716,0.12449848651885986,-1.4748282432556152,11.51730728149414
1713723119724239959,0.08522115647792816,0.13209278881549835,0.007456851191818714,0.0071826050989329815,-0.8415618538856506,10.515334129333496
1713723119734239959,0.1257012039422989,0.07137271761894226,0.009587380103766918,-0.02753331884741783,-0.05386953800916672,8.365340232849121
1713723119744239959,0.16831177473068237,-0.009587380103766918,0.011717909015715122,-0.06823474913835526,0.5003881454467773,7.8278422355651855
1713723119753239959,0.16831177473068237,-0.03941478580236435,0.01065264455974102,-0.07541735470294952,0.46327802538871765,8.689754486083984
1713723119763239959,0.0649811327457428,-0.03621898964047432,0.012783173471689224,-0.08619125932455063,0.104147769510746,8.543708801269531
1713723119772239959,-0.10120011866092682,-0.013848437927663326,0.007456851191818714,-0.12689268589019775,-0.36990416049957275,9.768342971801758
1713723119783239959,-0.2183792144060135,0.020240023732185364,0.009587380103766918,-0.06584054231643677,-0.4537012279033661,10.214860916137695
1713723119792239959,-0.24714134633541107,0.027696875855326653,0.007456851191818714,0.0071826050989329815,-0.304063618183136,10.737994194030762
1713723119802239959,-0.07989483326673508,-0.02876213937997818,0.004261057823896408,-0.028730420395731926,0.047884032130241394,9.312247276306152
1713723119811239959,-0.052197955548763275,-0.05432848632335663,0.012783173471689224,-0.021547814831137657,-0.05506663769483566,9.08719253540039
1713723119821239959,0.11078750342130661,-0.04048004746437073,0.009587380103766918,0.021547814831137657,-0.6416460275650024,10.483012199401855
1713723119831239959,0.02130528911948204,0.04580637067556381,0.026631610468029976,0.05027823522686958,-1.236605167388916,11.299434661865234
1713723119841239959,-0.029827404767274857,0.10120011866092682,0.026631610468029976,0.0347159244120121,-1.404199242591858,12.2990140914917
1713723119850239959,0.07030745595693588,0.0649811327457428,0.019174760207533836,-0.004788403399288654,-0.6141127347946167,9.718064308166504
1713723119860239959,0.06178533658385277,-0.003195793367922306,0.01810949482023716,0.014365210197865963,0.016759412363171577,8.317456245422363
1713723119870239959,0.20559602975845337,-0.049002163112163544,0.008522115647792816,0.009576806798577309,0.38307225704193115,8.196549415588379
1713723119879239959,0.13848437368869781,-0.026631610468029976,0.014913702383637428,-0.004788403399288654,0.243011474609375,8.899247169494629
1713723119889239959,0.06924218684434891,0.002130528911948204,0.01065264455974102,-0.009576806798577309,-0.12330138683319092,9.151835441589355
1713723119899239959,-0.0884169489145279,0.052197955548763275,0.019174760207533836,-0.017956512048840523,-0.27054479718208313,9.241618156433105
1713723119909239959,-0.185356006026268,0.07137271761894226,0.015978965908288956,-0.09457096457481384,-0.22625206410884857,9.804255485534668
1713723119918239959,-0.21411815285682678,0.05752427875995636,0.017044231295585632,0.08619125932455063,-0.03232172131538391,9.860519409179688
1713723119928239959,-0.09587380290031433,-0.020240023732185364,0.006391586735844612,0.10055647045373917,0.07900865375995636,9.222464561462402
1713723119937239959,-0.09480853378772736,-0.05752427875995636,0.012783173471689224,-0.08858545869588852,-0.416591078042984,10.066420555114746
1713723119947239959,0.008522115647792816,-0.044741105288267136,0.013848437927663326,-0.18794482946395874,-1.3000514507293701,11.75553035736084
1713723119957239959,-0.05326322093605995,0.030892668291926384,0.024501081556081772,-0.08140285313129425,-1.7741034030914307,12.454636573791504
1713723119967239959,0.08948221057653427,0.029827404767274857,0.013848437927663326,-0.02753331884741783,-1.2449848651885986,11.347318649291992
1713723119977239959,0.1161138266324997,0.012783173471689224,0.01810949482023716,-0.014365210197865963,-0.24181437492370605,8.863334655761719
1713723119986239959,0.2918824553489685,-0.01065264455974102,0.009587380103766918,0.2801215946674347,0.4106055796146393,8.085219383239746
1713723119996239959,0.25779399275779724,0.020240023732185364,0.015978965908288956,0.12210428714752197,0.5614402890205383,8.234856605529785
1713723120006239959,0.1619201898574829,0.05006742849946022,0.01810949482023716,-0.15801730751991272,0.10773907601833344,8.616731643676758
1713723120015239959,-0.04580637067556381,0.06178533658385277,0.014913702383637428,-0.11133037507534027,-0.49799394607543945,9.442730903625488
1713723120025239959,-0.22050973773002625,0.04580637067556381,0.01065264455974102,-0.05506663769483566,-0.5961562395095825,10.071208953857422
1713723120035239959,-0.30360037088394165,0.017044231295585632,0.011717909015715122,0.0071826050989329815,-0.10654197633266449,9.661800384521484
1713723120044239959,-0.16618125140666962,-0.058589544147253036,0.002130528911948204,0.12449848651885986,0.3974374830722809,8.573636054992676
1713723120054239959,-0.12783172726631165,-0.07350324839353561,0.007456851191818714,-0.06823474913835526,0.181959331035614,9.162610054016113
1713723120064239959,0.02876213937997818,-0.03621898964047432,0.009587380103766918,-0.2885012924671173,-0.7074865698814392,11.092336654663086
1713723120074239959,-0.022370552644133568,0.06924218684434891,0.026631610468029976,-0.06584054231643677,-1.6412252187728882,12.233173370361328
1713723120083239959,0.04261057823896408,0.09480853378772736,0.020240023732185364,0.033518824726343155,-1.7956511974334717,12.81735897064209
1713723120093239959,0.12889699637889862,0.03834952041506767,0.012783173471689224,-0.14006079733371735,-0.772130012512207,9.988609313964844
1713723120103239959,0.19600865244865417,-0.01810949482023716,0.012783173471689224,0.17836801707744598,0.035913024097681046,8.604761123657227
1713723120112239959,0.3163835406303406,-0.04367584362626076,0.001065264455974102,0.08379705995321274,0.6045359373092651,8.109161376953125
1713723120122239959,0.222640261054039,-0.01065264455974102,0.014913702383637428,-0.23822306096553802,0.591367781162262,7.688978672027588
1713723120132239959,0.044741105288267136,0.019174760207533836,0.012783173471689224,-0.07062894850969315,-0.25258827209472656,9.72285270690918
1713723120142239959,-0.13528858125209808,0.027696875855326653,0.007456851191818714,-0.015562310814857483,-0.6141127347946167,10.042478561401367
1713723120151239959,-0.2865561246871948,0.041545312851667404,0.008522115647792816,-0.11971008032560349,-0.3124433159828186,9.467870712280273
1713723120161239959,-0.2790992856025696,0.023435818031430244,0.00532632227987051,0.05147533491253853,0.010773907415568829,9.738415718078613
1713723120170239959,-0.11504855751991272,-0.03621898964047432,-0.001065264455974102,0.043095629662275314,0.22625206410884857,8.56884765625
1713723120180239959,-0.07669904083013535,-0.055393751710653305,0.004261057823896408,-0.30286651849746704,-0.15562310814857483,9.72285270690918
1713723120190239959,0.08202536404132843,-0.02876213937997818,0.006391586735844612,-0.13287819921970367,-0.7996633648872375,11.268310546875
1713723120200239959,0.008522115647792816,0.05326322093605995,0.015978965908288956,0.04189852997660637,-1.3072340488433838,11.404779434204102
1713723120210239959,0.008522115647792816,0.08522115647792816,0.01065264455974102,0.013168109580874443,-1.4077905416488647,12.370840072631836
1713723120220239959,0.10013485699892044,0.037284255027770996,0.004261057823896408,0.010773907415568829,-0.5566518902778625,9.510966300964355
1713723120229239959,0.11078750342130661,-0.017044231295585632,0.006391586735844612,0.0694318488240242,0.21428105235099792,7.893682956695557
1713723120238239959,0.22796659171581268,-0.04580637067556381,-0.003195793367922306,0.020350713282823563,0.5542576909065247,7.922413349151611
1713723120248239959,0.12250541150569916,-0.014913702383637428,0.009587380103766918,-0.033518824726343155,0.19153612852096558,8.558073997497559
1713723120258239959,-0.015978965908288956,0.01065264455974102,0.002130528911948204,0.028730420395731926,-0.6177040338516235,10.427945137023926
1713723120268239959,-0.16298545897006989,0.037284255027770996,0.002130528911948204,0.043095629662275314,-0.6787561774253845,10.138246536254883
1713723120278239959,-0.24394555389881134,0.04367584362626076,0.003195793367922306,0.017956512048840523,-0.31603461503982544,9.995792388916016
1713723120287239959,-0.10439591109752655,-0.006391586735844612,0.0,-0.04189852997660637,0.2214636504650116,8.614337921142578
1713723120297239959,-0.07669904083013535,-0.03195793181657791,0.006391586735844612,-0.1173158809542656,0.2585737705230713,8.609549522399902
1713723120307239959,0.08096009492874146,-0.030892668291926384,0.007456851191818714,-0.3447650372982025,-0.1173158809542656,9.7791166305542
1713723120316239959,0.024501081556081772,0.037284255027770996,0.02130528911948204,-0.19871874153614044,-0.6883329749107361,10.994174003601074
1713723120326239959,-0.03941478580236435,0.08202536404132843,0.02130528911948204,-0.04668693244457245,-1.5095441341400146,12.109871864318848
1713723120336239959,-0.008522115647792816,0.0511326938867569,0.015978965908288956,-0.1149216815829277,-1.4640543460845947,11.280281066894531
1713723120345793899,0.02556634694337845,-0.03302319720387459,0.004261057823896408,-0.0035913025494664907,-0.5853822827339172,9.339780807495117
1713723120355793899,0.12357067316770554,-0.07243797928094864,0.002130528911948204,-0.004788403399288654,0.1711854189634323,8.522160530090332
1713723120365793899,0.2130528837442398,-0.049002163112163544,0.003195793367922306,-0.11133037507534027,0.3974374830722809,8.857349395751953
1713723120374793899,0.16405072808265686,0.01810949482023716,0.011717909015715122,-0.14724339544773102,0.14484919607639313,8.531737327575684
1713723120384793899,0.015978965908288956,0.07030745595693588,0.017044231295585632,-0.02513911761343479,-0.4908113479614258,9.913191795349121
1713723120394793899,-0.12250541150569916,0.08628641813993454,0.012783173471689224,-0.07781155407428741,-0.7936778664588928,10.668562889099121
1713723120404793899,-0.21198762953281403,0.05645901337265968,0.009587380103766918,-0.05746084079146385,-0.5781996846199036,10.04846477508545
1713723120413793899,-0.12144014239311218,-0.03941478580236435,-0.002130528911948204,0.026336219161748886,0.014365210197865963,8.524555206298828
1713723120423793899,-0.10333064943552017,-0.08309062570333481,0.003195793367922306,-0.20231004059314728,0.28730419278144836,8.631096839904785
1713723120433793899,0.058589544147253036,-0.07563377171754837,0.003195793367922306,-0.43095630407333374,0.12449848651885986,9.615114212036133
1713723120443793899,0.020240023732185364,0.013848437927663326,0.020240023732185364,-0.2190694510936737,-0.5315127968788147,10.854113578796387
1713723120452793899,-0.03302319720387459,0.08735168725252151,0.02556634694337845,0.0,-1.5622166395187378,12.146982192993164
1713723120462793899,-0.002130528911948204,0.06924218684434891,0.019174760207533836,0.1173158809542656,-1.6184803247451782,11.559206008911133
1713723120472793899,0.04367584362626076,-0.015978965908288956,0.012783173471689224,0.04429272934794426,-0.6811503767967224,9.512163162231445
1713723120481793899,0.14168016612529755,-0.05645901337265968,0.013848437927663326,-0.1951274424791336,0.10534487664699554,8.765172004699707
1713723120491793899,0.24288028478622437,-0.03195793181657791,0.015978965908288956,-0.1951274424791336,0.45010989904403687,8.801085472106934
1713723120501793899,0.18002969026565552,0.02556634694337845,0.02556634694337845,-0.11133037507534027,0.3579331338405609,8.056488990783691
1713723120511793899,0.02876213937997818,0.06391586363315582,0.023435818031430244,-0.07900865375995636,-0.2801215946674347,9.457096099853516
1713723120520793899,-0.11504855751991272,0.06391586363315582,0.019174760207533836,-0.0933738648891449,-0.7026981711387634,10.139444351196289
1713723120530793899,-0.2364886999130249,0.037284255027770996,0.015978965908288956,-0.03232172131538391,-0.5506663918495178,9.750386238098145
1713723120540793899,-0.16831177473068237,-0.04261057823896408,0.008522115647792816,-0.06823474913835526,-0.06344634294509888,9.226056098937988
1713723120549793899,-0.11504855751991272,-0.07989483326673508,0.015978965908288956,-0.35314473509788513,0.26336216926574707,8.753201484680176
1713723120559793899,0.023435818031430244,-0.06072007119655609,0.022370552644133568,-0.4429273009300232,0.06344634294509888,9.786299705505371
1713723120569793899,0.05432848632335663,0.02556634694337845,0.034088462591171265,-0.14724339544773102,-0.7601590156555176,11.637017250061035
1713723120579793899,0.008522115647792816,0.0884169489145279,0.034088462591171265,0.3280056416988373,-1.7848773002624512,12.222399711608887
1713723120588793899,0.034088462591171265,0.05006742849946022,0.015978965908288956,0.5147533416748047,-1.7334020137786865,11.208455085754395
1713723120598793899,0.049002163112163544,-0.019174760207533836,0.011717909015715122,0.2861070930957794,-0.7637503147125244,9.552865028381348
1713723120608793899,0.1533980816602707,-0.044741105288267136,0.006391586735844612,-0.09935937076807022,-0.035913024097681046,9.099163055419922
1713723120617793899,0.21944446861743927,0.001065264455974102,0.01065264455974102,-0.38067805767059326,0.4596867263317108,8.797493934631348
1713723120627793899,0.1906823366880417,0.06391586363315582,0.022370552644133568,-0.25258827209472656,0.5650315880775452,7.64109468460083
1713723120637793899,0.05645901337265968,0.0884169489145279,0.023435818031430244,-0.1149216815829277,0.0694318488240242,8.59997272491455
1713723120647793899,-0.0788295716047287,0.06072007119655609,0.015978965908288956,-0.14604629576206207,-0.3902548849582672,10.092757225036621
1713723120656793899,-0.1949433982372284,0.012783173471689224,0.012783173471689224,-0.21667525172233582,-0.3579331338405609,9.884461402893066
1713723120666793899,-0.18748654425144196,-0.0649811327457428,0.009587380103766918,-0.333991140127182,-0.11252747476100922,9.402029991149902
1713723120675793899,-0.1395496428012848,-0.10865697264671326,0.011717909015715122,-0.4034229815006256,0.047884032130241394,9.102754592895508
1713723120685793899,-0.05326322093605995,-0.08628641813993454,0.015978965908288956,-0.32202011346817017,-0.27892449498176575,10.352527618408203
1713723120695793899,0.008522115647792816,-0.004261057823896408,0.022370552644133568,-0.033518824726343155,-1.0259153842926025,11.70046329498291
1713723120705793899,0.041545312851667404,0.05326322093605995,0.020240023732185364,0.3543418347835541,-1.646013617515564,12.047622680664062
1713723120715793899,0.11078750342130661,0.03621898964047432,0.013848437927663326,0.3292027413845062,-1.3323732614517212,10.985794067382812
1713723120724793899,0.14487595856189728,0.017044231295585632,0.020240023732185364,-0.0011971008498221636,-0.5147533416748047,9.84735107421875
1713723120734793899,0.26738137006759644,0.013848437927663326,0.015978965908288956,-0.33039984107017517,0.29448679089546204,8.447940826416016
1713723120744793899,0.21944446861743927,0.04367584362626076,0.026631610468029976,-0.31124621629714966,0.7433996200561523,7.313088893890381
1713723120753793899,0.11930961906909943,0.04261057823896408,0.02556634694337845,-0.08140285313129425,0.333991140127182,8.461108207702637
1713723120763793899,-0.02556634694337845,0.017044231295585632,0.014913702383637428,-0.11611878126859665,-0.2238578498363495,9.355342864990234
1713723120773793899,-0.17789916694164276,-0.019174760207533836,0.00532632227987051,-0.1496376097202301,-0.33039984107017517,9.6989107131958
1713723120782793899,-0.27057716250419617,-0.04261057823896408,0.007456851191818714,-0.16519992053508759,-0.08858545869588852,9.552865028381348
1713723120792793899,-0.18642127513885498,-0.07563377171754837,0.01065264455974102,-0.3423708379268646,0.10534487664699554,9.312247276306152
1713723120802793899,-0.10972223430871964,-0.07989483326673508,0.013848437927663326,-0.46806642413139343,-0.1280897855758667,9.883264541625977
1713723120811793899,-0.013848437927663326,-0.04261057823896408,0.022370552644133568,-0.22744916379451752,-1.0319008827209473,11.865663528442383
1713723120821793899,0.05006742849946022,0.017044231295585632,0.022370552644133568,0.2932896912097931,-1.843535304069519,13.014880180358887
1713723120831793899,0.11291802674531937,0.03834952041506767,0.013848437927663326,0.3423708379268646,-1.4532804489135742,11.143811225891113
1713723120841793899,0.1395496428012848,0.04048004746437073,0.020240023732185364,0.06344634294509888,-0.3818751573562622,9.032125473022461
1713723120850793899,0.24714134633541107,0.026631610468029976,0.01810949482023716,-0.18555063009262085,0.4297592043876648,7.939172744750977
1713723120860793899,0.21624867618083954,0.037284255027770996,0.024501081556081772,-0.40462008118629456,0.6308721303939819,8.034940719604492
1713723120870793899,0.13528858125209808,0.024501081556081772,0.027696875855326653,-0.30885201692581177,0.1975216418504715,8.735244750976562
1713723120879793899,-0.024501081556081772,-0.008522115647792816,0.024501081556081772,-0.09576806426048279,-0.3711012601852417,9.29069995880127
1713723120889793899,-0.18748654425144196,-0.041545312851667404,0.015978965908288956,-0.011971008032560349,-0.5758054852485657,10.046070098876953
1713723120899793899,-0.27590349316596985,-0.05006742849946022,0.01810949482023716,-0.09816227108240128,-0.2777273952960968,9.974244117736816
1713723120909793899,-0.1576591432094574,-0.0649811327457428,0.017044231295585632,-0.28730419278144836,0.17477671802043915,9.159018516540527
1713723120918793899,-0.07137271761894226,-0.052197955548763275,0.022370552644133568,-0.48961424827575684,0.14844051003456116,9.114726066589355
1713723120928793899,0.05006742849946022,-0.019174760207533836,0.027696875855326653,-0.3711012601852417,-0.6643909811973572,11.159374237060547
1713723120938793899,0.06711165606975555,0.03834952041506767,0.030892668291926384,0.13168108463287354,-1.5849615335464478,12.349291801452637
1713723120948793899,0.06711165606975555,0.04687163606286049,0.022370552644133568,0.2885012924671173,-1.6376339197158813,11.635820388793945
1713723120957793899,0.092678003013134,0.004261057823896408,0.01810949482023716,0.05506663769483566,-0.5710170865058899,9.445125579833984
1713723120967793899,0.1438107043504715,-0.030892668291926384,0.02130528911948204,-0.05027823522686958,0.37229835987091064,8.219294548034668
1713723120977793899,0.21198762953281403,-0.027696875855326653,0.024501081556081772,-0.1256955862045288,0.6655880808830261,8.254010200500488
1713723120986793899,0.15126754343509674,0.007456851191818714,0.03515372797846794,-0.16998831927776337,0.40701428055763245,8.22887134552002
1713723120996793899,0.002130528911948204,0.03621898964047432,0.03621898964047432,-0.11611878126859665,-0.3543418347835541,9.6989107131958
1713723121006793899,-0.15020228922367096,0.04048004746437073,0.03195793181657791,-0.11133037507534027,-0.7613561153411865,10.600327491760254
1713723121015793899,-0.22903186082839966,0.01810949482023716,0.03195793181657791,0.010773907415568829,-0.5279214382171631,10.305841445922852
1713723121025793899,-0.1161138266324997,-0.05752427875995636,0.023435818031430244,-0.10773907601833344,0.15921440720558167,8.683769226074219
1713723121035793899,-0.08522115647792816,-0.0884169489145279,0.026631610468029976,-0.3974374830722809,0.30286651849746704,8.797493934631348
1713723121045793899,0.06817692518234253,-0.0649811327457428,0.023435818031430244,-0.2968810200691223,-0.2585737705230713,10.11909294128418
1713723121054793899,0.002130528911948204,0.02130528911948204,0.034088462591171265,0.11971008032560349,-1.2976572513580322,12.070367813110352
1713723121064793899,-0.01810949482023716,0.05965480953454971,0.026631610468029976,0.43095630407333374,-2.232593059539795,13.992911338806152
1713723121073793899,0.08948221057653427,0.014913702383637428,0.019174760207533836,0.14724339544773102,-1.2306196689605713,10.36689281463623
1713723121084793899,0.10865697264671326,-0.01810949482023716,0.027696875855326653,-0.08858545869588852,0.28371289372444153,7.99184513092041
1713723121093793899,0.32597091794013977,-0.029827404767274857,0.02130528911948204,-0.18794482946395874,1.0342950820922852,7.0772600173950195
1713723121103793899,0.2364886999130249,0.026631610468029976,0.041545312851667404,-0.2454056739807129,0.7709329128265381,7.8517842292785645
1713723121112793899,0.12463594228029251,0.04687163606286049,0.041545312851667404,-0.18315643072128296,-0.1999158412218094,10.02691650390625
1713723121122793899,-0.1022653877735138,0.044741105288267136,0.029827404767274857,0.013168109580874443,-0.8882488012313843,10.11550235748291
1713723121132793899,-0.2790992856025696,0.011717909015715122,0.017044231295585632,0.08499415963888168,-0.7972691655158997,10.098742485046387
1713723121142793899,-0.258859246969223,-0.03834952041506767,0.014913702383637428,0.06703764945268631,0.05985504016280174,8.955511093139648
1713723121152793899,-0.13635385036468506,-0.09800432622432709,0.009587380103766918,-0.09457096457481384,0.6093243360519409,8.273163795471191
1713723121161793899,-0.012783173471689224,-0.07563377171754837,0.017044231295585632,-0.19393032789230347,0.24899697303771973,9.526528358459473
1713723121171793899,0.08735168725252151,0.001065264455974102,0.02130528911948204,0.005985504016280174,-0.7134720683097839,11.464634895324707
1713723121180793899,0.023435818031430244,0.09054747968912125,0.02876213937997818,0.23822306096553802,-1.7633295059204102,12.278663635253906
1713723121190793899,0.02876213937997818,0.08522115647792816,0.015978965908288956,0.16519992053508759,-1.908178687095642,12.507309913635254
1713723121200793899,0.1065264418721199,0.01065264455974102,0.011717909015715122,-0.18555063009262085,-0.5015852451324463,9.23443603515625
1713723121209793899,0.18748654425144196,-0.037284255027770996,0.013848437927663326,-0.04429272934794426,0.6500257253646851,7.817068576812744
1713723121219793899,0.31318774819374084,-0.04687163606286049,0.006391586735844612,-0.07781155407428741,0.9744400978088379,8.072051048278809
1713723121229793899,0.20559602975845337,-0.015978965908288956,0.017044231295585632,-0.05027823522686958,0.5398924946784973,7.8278422355651855
1713723121239793899,-0.004261057823896408,-0.001065264455974102,0.004261057823896408,0.1759738177061081,-0.5853822827339172,10.430339813232422
1713723121248793899,-0.16618125140666962,0.004261057823896408,-0.003195793367922306,0.09217676520347595,-1.0007762908935547,10.496180534362793
1713723121258793899,-0.31318774819374084,0.019174760207533836,0.0,0.047884032130241394,-0.4118026793003082,9.464279174804688
1713723121268793899,-0.20559602975845337,-0.011717909015715122,-0.004261057823896408,0.10773907601833344,0.50876784324646,8.592789649963379
1713723121278793899,-0.07776430249214172,-0.04048004746437073,-0.002130528911948204,-0.09816227108240128,0.7242460250854492,8.037335395812988
1713723121287793899,0.04048004746437073,-0.037284255027770996,0.0,-0.264559268951416,-0.2238578498363495,10.778696060180664
1713723121297793899,0.08096009492874146,0.012783173471689224,0.006391586735844612,0.08140285313129425,-1.5598224401474,13.104662895202637
1713723121307793899,-0.002130528911948204,0.047936901450157166,0.0,0.1975216418504715,-2.3678653240203857,13.041216850280762
1713723121316793899,0.08096009492874146,0.004261057823896408,-0.01065264455974102,-0.20949263870716095,-1.380257248878479,10.493785858154297
1713723121326793899,0.1065264418721199,-0.037284255027770996,-0.004261057823896408,-0.34596213698387146,0.33518823981285095,8.007407188415527
1713723121336793899,0.3206445872783661,-0.06072007119655609,-0.007456851191818714,-0.152031809091568,1.1683703660964966,7.380126476287842
1713723121346793899,0.28975191712379456,-0.02876213937997818,0.006391586735844612,-0.1628057062625885,0.9229647517204285,8.04930591583252
1713723121355793899,0.17044231295585632,0.007456851191818714,0.015978965908288956,-0.14006079733371735,-0.14365209639072418,9.731232643127441
1713723121365793899,-0.06711165606975555,0.020240023732185364,0.006391586735844612,0.152031809091568,-0.9900023937225342,10.715249061584473
1713723121375793899,-0.2556634545326233,0.020240023732185364,-0.004261057823896408,0.19632454216480255,-0.7242460250854492,9.90122127532959
1713723121384793899,-0.3163835406303406,0.019174760207533836,-0.001065264455974102,0.10055647045373917,0.16759411990642548,8.83939266204834
1713723121394793899,-0.13741911947727203,-0.04367584362626076,-0.012783173471689224,0.10893617570400238,0.8307879567146301,7.7883381843566895
1713723121404793899,-0.08309062570333481,-0.055393751710653305,-0.008522115647792816,-0.14245499670505524,0.40701428055763245,8.96269416809082
1713723121413793899,0.06604639440774918,-0.04580637067556381,-0.012783173471689224,-0.26575639843940735,-0.7864952683448792,11.772289276123047
1713723121423793899,-0.01065264455974102,0.026631610468029976,-0.002130528911948204,0.25737667083740234,-1.9584569931030273,13.116633415222168
1713723121433793899,0.023435818031430244,0.03195793181657791,-0.012783173471689224,0.12689268589019775,-2.075772762298584,13.051990509033203
1713723121442793899,0.11717908829450607,-0.00532632227987051,-0.007456851191818714,-0.4489127993583679,-0.4213795065879822,9.151835441589355
1713723121452793899,0.21411815285682678,-0.027696875855326653,-0.002130528911948204,-0.08499415963888168,0.7793126106262207,7.603984355926514
1713723121462793899,0.3536677956581116,-0.029827404767274857,-0.004261057823896408,0.031124621629714966,1.0342950820922852,7.848193168640137
1713723121472793899,0.250337153673172,0.004261057823896408,0.01065264455974102,-0.1711854189634323,0.43694180250167847,8.179789543151855
1713723121482793899,0.03195793181657791,0.013848437927663326,-0.001065264455974102,-0.02753331884741783,-0.6619967818260193,10.491392135620117
1713723121491793899,-0.17470337450504303,0.004261057823896408,-0.01065264455974102,0.0933738648891449,-0.8475474119186401,10.26274585723877
1713723121501793899,-0.31318774819374084,0.002130528911948204,-0.009587380103766918,-0.011971008032560349,-0.05985504016280174,8.722076416015625
1713723121511793899,-0.2556634545326233,-0.017044231295585632,-0.007456851191818714,-0.0347159244120121,0.7422025203704834,8.380903244018555
1713723121520793899,-0.10865697264671326,-0.049002163112163544,-0.007456851191818714,-0.02753331884741783,0.7469909191131592,8.248024940490723
1713723121530793899,-0.04048004746437073,-0.04687163606286049,-0.004261057823896408,-0.19033902883529663,-0.24181437492370605,10.767922401428223
1713723121540793899,0.024501081556081772,-0.007456851191818714,0.001065264455974102,0.04189852997660637,-1.5897499322891235,13.423091888427734
1713723121550793899,0.008522115647792816,0.019174760207533836,-0.001065264455974102,0.2885012924671173,-2.3918075561523438,13.266271591186523
1713723121559793899,0.09054747968912125,-0.012783173471689224,-0.004261057823896408,-0.06823474913835526,-1.4772224426269531,10.796652793884277
1713723121569793899,0.16085493564605713,-0.013848437927663326,0.002130528911948204,-0.333991140127182,0.1628057062625885,8.669404029846191
1713723121578793899,0.3771035969257355,0.006391586735844612,0.001065264455974102,-0.2561795711517334,1.278503656387329,6.977900505065918
1713723121588793899,0.3163835406303406,0.05752427875995636,0.023435818031430244,-0.25498247146606445,1.1324573755264282,7.0353617668151855
1713723121598793899,0.148071750998497,0.06391586363315582,0.01810949482023716,-0.23104046285152435,-0.1735796183347702,10.138246536254883
1713723121608793899,-0.08948221057653427,0.03515372797846794,0.00532632227987051,-0.017956512048840523,-1.0127472877502441,10.858901977539062
1713723121617793899,-0.29933929443359375,-0.01810949482023716,-0.001065264455974102,-0.033518824726343155,-0.773327112197876,9.825803756713867
1713723121627793899,-0.3067961633205414,-0.07030745595693588,0.0,-0.17477671802043915,0.18076223134994507,9.108739852905273
1713723121637793899,-0.15659387409687042,-0.12463594228029251,-0.002130528911948204,-0.15801730751991272,0.895431399345398,7.700949668884277
1713723121647793899,-0.03941478580236435,-0.1022653877735138,0.007456851191818714,-0.040701426565647125,0.48961424827575684,8.87171459197998
1713723121656793899,0.08415588736534119,-0.022370552644133568,0.008522115647792816,0.02753331884741783,-0.6955155730247498,11.888408660888672
1713723121666793899,0.017044231295585632,0.0788295716047287,0.022370552644133568,0.3926490843296051,-1.8710685968399048,12.916717529296875
1713723121676793899,0.04261057823896408,0.07137271761894226,0.00532632227987051,0.3890577554702759,-2.074575662612915,12.808979034423828
1713723121685793899,0.11930961906909943,0.004261057823896408,0.00532632227987051,-0.2537853717803955,-0.5793967843055725,9.154230117797852
1713723121695793899,0.222640261054039,-0.034088462591171265,0.008522115647792816,-0.1867477297782898,0.7745242118835449,7.635108947753906
1713723121705793899,0.3568635880947113,-0.041545312851667404,0.006391586735844612,-0.10534487664699554,1.2078747749328613,7.854178428649902
1713723121715793899,0.2556634545326233,-0.009587380103766918,0.024501081556081772,-0.27653029561042786,0.6775590777397156,7.9631147384643555
1713723121724793899,0.03621898964047432,0.002130528911948204,0.013848437927663326,-0.10175357013940811,-0.47405192255973816,10.427945137023926
1713723121734793899,-0.185356006026268,-0.003195793367922306,0.003195793367922306,0.09816227108240128,-0.833182156085968,10.597933769226074
1713723121744793899,-0.3387540876865387,0.008522115647792816,0.00532632227987051,-0.11013327538967133,-0.21787235140800476,9.258378028869629
1713723121753793899,-0.2908172011375427,0.007456851191818714,0.012783173471689224,-0.17836801707744598,0.5746083855628967,8.926780700683594
1713723121763793899,-0.10013485699892044,-0.030892668291926384,0.011717909015715122,-0.008379706181585789,0.8104372620582581,7.948749542236328
1713723121774793899,-0.03834952041506767,-0.034088462591171265,0.015978965908288956,-0.1735796183347702,-0.06703764945268631,9.93833065032959
1713723121783793899,0.08202536404132843,-0.011717909015715122,0.015978965908288956,0.14724339544773102,-1.357512354850769,12.757503509521484
1713723121792793899,-0.02130528911948204,0.02876213937997818,0.012783173471689224,0.6260837316513062,-2.2445640563964844,13.219584465026855
1713723121802793899,0.058589544147253036,0.004261057823896408,-0.001065264455974102,0.23104046285152435,-1.601720929145813,11.57476806640625
1713723121812793899,0.10439591109752655,-0.019174760207533836,0.002130528911948204,-0.1364694982767105,0.1149216815829277,8.022970199584961
1713723121821793899,0.29507824778556824,-0.026631610468029976,0.0,-0.152031809091568,1.2294225692749023,6.861782073974609
1713723121831793899,0.30786141753196716,0.011717909015715122,0.013848437927663326,-0.264559268951416,1.0606313943862915,8.145073890686035
1713723121841793899,0.19387812912464142,0.04580637067556381,0.023435818031430244,-0.24061726033687592,-0.021547814831137657,9.738415718078613
1713723121851793899,-0.049002163112163544,0.04367584362626076,0.015978965908288956,-0.017956512048840523,-0.8236053586006165,10.573991775512695
1713723121860793899,-0.25779399275779724,0.015978965908288956,0.009587380103766918,0.0454898327589035,-0.7015010714530945,9.999382972717285
1713723121870793899,-0.3291667103767395,-0.006391586735844612,0.017044231295585632,-0.06344634294509888,0.11013327538967133,8.890868186950684
1713723121880793899,-0.1619201898574829,-0.06711165606975555,0.009587380103766918,-0.19153612852096558,0.7817068696022034,7.808688640594482
1713723121889793899,-0.10120011866092682,-0.07137271761894226,0.017044231295585632,-0.23942016065120697,0.4920084476470947,8.900444984436035
1713723121899793899,0.058589544147253036,-0.04048004746437073,0.01810949482023716,-0.2885012924671173,-0.4836287498474121,11.365275382995605
1713723121909793899,-0.006391586735844612,0.044741105288267136,0.029827404767274857,0.20111294090747833,-1.7106571197509766,13.06755256652832
1713723121918793899,0.020240023732185364,0.047936901450157166,0.013848437927663326,0.5099649429321289,-2.278082847595215,13.439850807189941
1713723121928793899,0.09800432622432709,-0.007456851191818714,0.01065264455974102,0.0933738648891449,-0.8762778043746948,9.727641105651855
1713723121938793899,0.1896170675754547,-0.03302319720387459,0.008522115647792816,-0.03232172131538391,0.6619967818260193,7.814674377441406
1713723121948793899,0.3568635880947113,-0.02876213937997818,0.004261057823896408,0.08619125932455063,1.260547161102295,7.454346656799316
1713723121957793899,0.2737729549407959,0.009587380103766918,0.02130528911948204,0.1388636976480484,0.7673416137695312,7.663839340209961
1713723121967793899,0.07563377171754837,0.022370552644133568,0.011717909015715122,0.10893617570400238,-0.38307225704193115,10.247182846069336
1713723121977793899,-0.14913702011108398,0.014913702383637428,0.001065264455974102,0.2753331959247589,-0.9696516990661621,10.703278541564941
1713723121986793899,-0.32703617215156555,0.017044231295585632,-0.002130528911948204,0.1412578970193863,-0.49559974670410156,9.1231050491333
1713723121996793899,-0.33129724860191345,0.022370552644133568,0.004261057823896408,-0.06464344263076782,0.33997663855552673,8.913612365722656
1713723122006793899,-0.10972223430871964,-0.023435818031430244,-0.004261057823896408,-0.09217676520347595,0.773327112197876,8.507795333862305
1713723122015793899,-0.05645901337265968,-0.03302319720387459,0.0,-0.2513911724090576,0.20350714027881622,9.870096206665039
1713723122025793899,0.10865697264671326,-0.02556634694337845,-0.007456851191818714,-0.1735796183347702,-0.8978255987167358,11.857283592224121
1713723122035793899,0.0,0.034088462591171265,-0.002130528911948204,0.3974374830722809,-1.9632453918457031,12.703634262084961
1713723122044793899,-0.007456851191818714,0.034088462591171265,-0.015978965908288956,0.39624038338661194,-1.9141641855239868,12.667720794677734
1713723122055793899,0.0884169489145279,-0.002130528911948204,-0.011717909015715122,-0.19273322820663452,-0.2849099934101105,8.760383605957031
1713723122064793899,0.17044231295585632,-0.02130528911948204,-0.009587380103766918,-0.02274491637945175,0.9301473498344421,7.249642848968506
1713723122074793899,0.3142530024051666,-0.02130528911948204,-0.008522115647792816,0.1628057062625885,1.180341362953186,7.569268703460693
1713723122083793899,0.2087918221950531,0.020240023732185364,0.009587380103766918,-0.15322890877723694,0.4058171808719635,8.641870498657227
1713723122093793899,0.014913702383637428,0.037284255027770996,0.002130528911948204,-0.20350714027881622,-0.6955155730247498,11.174936294555664
1713723122103793899,-0.18216021358966827,0.03195793181657791,-0.006391586735844612,0.104147769510746,-0.9265560507774353,10.493785858154297
1713723122113793899,-0.3110572099685669,0.020240023732185364,-0.006391586735844612,0.047884032130241394,-0.3064578175544739,8.87291145324707
1713723122122793899,-0.1757686287164688,-0.037284255027770996,-0.011717909015715122,-0.1364694982767105,0.608127236366272,7.866149425506592
1713723122132793899,-0.10333064943552017,-0.06391586363315582,-0.01065264455974102,-0.05985504016280174,0.8044517636299133,8.340201377868652
1713723122142793899,0.07030745595693588,-0.05432848632335663,-0.012783173471689224,-0.2537853717803955,0.17238251864910126,10.08198356628418
1713723122151793899,0.041545312851667404,0.022370552644133568,0.002130528911948204,-0.18076223134994507,-0.9756371974945068,12.649764060974121
1713723122161793899,-0.027696875855326653,0.07243797928094864,0.001065264455974102,0.3842693567276001,-2.182314872741699,13.39795207977295
1713723122171793899,0.008522115647792816,0.029827404767274857,-0.008522115647792816,0.35314473509788513,-1.5849615335464478,10.796652793884277
1713723122181793899,0.05326322093605995,-0.03302319720387459,-0.009587380103766918,-0.11971008032560349,0.038307227194309235,8.086416244506836
1713723122190793899,0.222640261054039,-0.05752427875995636,-0.013848437927663326,-0.07661445438861847,0.9780313968658447,7.557297706604004
1713723122200793899,0.27483823895454407,-0.04048004746437073,-0.009587380103766918,0.1304839849472046,0.8858546018600464,8.811859130859375
1713723122210793899,0.19600865244865417,0.006391586735844612,0.001065264455974102,-0.0933738648891449,0.04429272934794426,9.35893440246582
1713723122219793899,-0.02130528911948204,0.03834952041506767,-0.004261057823896408,-0.02992752008140087,-0.834379255771637,10.56800651550293
1713723122229793899,-0.19281286001205444,0.041545312851667404,-0.013848437927663326,0.16519992053508759,-0.8415618538856506,10.24239444732666
1713723122239793899,-0.2918824553489685,0.04261057823896408,-0.009587380103766918,-0.23822306096553802,-0.06584054231643677,8.876502990722656
1713723122248793899,-0.1438107043504715,-0.02130528911948204,-0.019174760207533836,-0.25977087020874023,0.5781996846199036,8.202534675598145
1713723122258793899,-0.09480853378772736,-0.05965480953454971,-0.012783173471689224,0.0071826050989329815,0.48722004890441895,8.755595207214355
1713723122268793899,0.055393751710653305,-0.06711165606975555,-0.012783173471689224,-0.3064578175544739,-0.27413609623908997,10.959458351135254
1713723122278793899,0.015978965908288956,0.007456851191818714,0.008522115647792816,-0.15682020783424377,-1.2737152576446533,12.872425079345703
1713723122287793899,-0.030892668291926384,0.0649811327457428,0.012783173471689224,0.2238578498363495,-1.7741034030914307,12.692859649658203
1713723122297793899,0.05752427875995636,0.04687163606286049,0.012783173471689224,-0.12330138683319092,-0.7230489253997803,9.461884498596191
1713723122307793899,0.092678003013134,0.012783173471689224,0.022370552644133568,-0.45489832758903503,0.5015852451324463,7.522581577301025
1713723122316793899,0.26205503940582275,-0.017044231295585632,0.02556634694337845,-0.48722004890441895,0.9911994934082031,7.841010570526123
1713723122326793899,0.2034655064344406,0.001065264455974102,0.04367584362626076,-0.5805938839912415,0.6260837316513062,9.47265911102295
1713723122336793899,0.09161274135112762,0.022370552644133568,0.05006742849946022,-0.5829880833625793,-0.243011474609375,10.293869972229004
1713723122346793899,-0.1161138266324997,0.03195793181657791,0.047936901450157166,-0.3148375153541565,-0.5865793824195862,9.889249801635742
1713723122355793899,-0.24181503057479858,0.019174760207533836,0.04687163606286049,-0.295683890581131,-0.181959331035614,9.18056583404541
1713723122365793899,-0.20559602975845337,-0.02130528911948204,0.052197955548763275,-0.45250412821769714,0.3495534360408783,8.335412979125977
1713723122375793899,-0.12357067316770554,-0.07989483326673508,0.05006742849946022,-0.42616790533065796,0.44412440061569214,8.65863037109375
1713723122385793899,-0.03515372797846794,-0.07989483326673508,0.05965480953454971,-0.38546645641326904,-0.017956512048840523,10.429141998291016
