t,gx,gy,gz,ax,ay,az
1713723961481397100,0.003195793367922306,0.002130528911948204,0.006391586735844612,-0.13407529890537262,-0.5351040959358215,10.001777648925781
1713723961490397100,0.003195793367922306,0.002130528911948204,0.00532632227987051,-0.12330138683319092,-0.5207388401031494,10.012551307678223
1713723961500397100,0.003195793367922306,0.003195793367922306,0.00532632227987051,-0.13527239859104156,-0.5303156971931458,10.016142845153809
1713723961509397100,0.004261057823896408,0.003195793367922306,0.00532632227987051,-0.14484919607639313,-0.5434837937355042,10.014945983886719
1713723961520397100,0.003195793367922306,0.003195793367922306,0.00532632227987051,-0.14006079733371735,-0.529118537902832,10.013748168945312
1713723961529397100,0.003195793367922306,0.002130528911948204,0.00532632227987051,-0.12330138683319092,-0.5111620426177979,10.005369186401367
1713723961538397100,0.003195793367922306,0.003195793367922306,0.00532632227987051,-0.1280897855758667,-0.5207388401031494,10.004171371459961
1713723961548397100,0.003195793367922306,0.003195793367922306,0.00532632227987051,-0.14604629576206207,-0.5363011956214905,10.004171371459961
1713723961558397100,0.003195793367922306,0.003195793367922306,0.00532632227987051,-0.13168108463287354,-0.5255272388458252,10.000580787658691
1713723961567397100,0.003195793367922306,0.003195793367922306,0.004261057823896408,-0.11971008032560349,-0.507570743560791,10.008959770202637
1713723961577397100,0.003195793367922306,0.003195793367922306,0.004261057823896408,-0.13407529890537262,-0.5231330394744873,10.013748168945312
1713723961587397100,0.003195793367922306,0.003195793367922306,0.00532632227987051,-0.1412578970193863,-0.5410895943641663,10.012551307678223
1713723961596397100,0.003195793367922306,0.002130528911948204,0.00532632227987051,-0.1304839849472046,-0.5243301391601562,10.006566047668457
1713723961606397100,0.003195793367922306,0.003195793367922306,0.00532632227987051,-0.12928688526153564,-0.5159504413604736,10.002974510192871
1713723961615397100,0.004261057823896408,0.003195793367922306,0.004261057823896408,-0.14006079733371735,-0.5339069962501526,10.004171371459961
1713723961625397100,0.004261057823896408,0.003195793367922306,0.00532632227987051,-0.14365209639072418,-0.5434837937355042,10.006566047668457
1713723961635397100,0.003195793367922306,0.003195793367922306,0.00532632227987051,-0.13766659796237946,-0.5279214382171631,10.013748168945312
1713723961644397100,0.003195793367922306,0.003195793367922306,0.00532632227987051,-0.13407529890537262,-0.5231330394744873,10.014945983886719
1713723961654397100,0.003195793367922306,0.002130528911948204,0.004261057823896408,-0.14245499670505524,-0.5363011956214905,10.010157585144043
1713723961663397100,0.003195793367922306,0.002130528911948204,0.00532632227987051,-0.14604629576206207,-0.5374982953071594,10.011354446411133
1713723961673397100,0.004261057823896408,0.002130528911948204,0.00532632227987051,-0.1304839849472046,-0.5207388401031494,10.013748168945312
1713723961682397100,0.004261057823896408,0.003195793367922306,0.00532632227987051,-0.13168108463287354,-0.5219359397888184,10.011354446411133
1713723961692397100,0.004261057823896408,0.003195793367922306,0.00532632227987051,-0.14365209639072418,-0.5398924946784973,10.012551307678223
1713723961702397100,0.003195793367922306,0.003195793367922306,0.00532632227987051,-0.13168108463287354,-0.5303156971931458,10.013748168945312
1713723961711397100,0.003195793367922306,0.003195793367922306,0.00532632227987051,-0.11971008032560349,-0.5123591423034668,10.007762908935547
1713723961721397100,0.002130528911948204,0.003195793367922306,0.00532632227987051,-0.12928688526153564,-0.5207388401031494,9.998186111450195
1713723961731397100,0.003195793367922306,0.002130528911948204,0.00532632227987051,-0.13527239859104156,-0.5303156971931458,9.999382972717285
1713723961740397100,0.003195793367922306,0.003195793367922306,0.00532632227987051,-0.1304839849472046,-0.5207388401031494,10.008959770202637
1713723961749397100,0.003195793367922306,0.003195793367922306,0.00532632227987051,-0.12449848651885986,-0.5231330394744873,10.013748168945312
1713723961759397100,0.003195793367922306,0.003195793367922306,0.00532632227987051,-0.13407529890537262,-0.5363011956214905,10.006566047668457
1713723961769397100,0.003195793367922306,0.002130528911948204,0.00532632227987051,-0.14604629576206207,-0.5374982953071594,10.006566047668457
1713723961778397100,0.003195793367922306,0.003195793367922306,0.00532632227987051,-0.13407529890537262,-0.5219359397888184,10.014945983886719
1713723961788397100,0.003195793367922306,0.003195793367922306,0.00532632227987051,-0.12449848651885986,-0.5111620426177979,10.017339706420898
1713723961798397100,0.003195793367922306,0.003195793367922306,0.00532632227987051,-0.13287819921970367,-0.5219359397888184,10.016142845153809
1713723961807397100,0.003195793367922306,0.003195793367922306,0.00532632227987051,-0.13766659796237946,-0.5315127968788147,10.011354446411133
1713723961817397100,0.003195793367922306,0.003195793367922306,0.00532632227987051,-0.12928688526153564,-0.5219359397888184,10.004171371459961
1713723961827397100,0.003195793367922306,0.003195793367922306,0.00532632227987051,-0.13168108463287354,-0.5243301391601562,10.002974510192871
1713723961836397100,0.004261057823896408,0.003195793367922306,0.00532632227987051,-0.14604629576206207,-0.5398924946784973,10.005369186401367
1713723961845397100,0.003195793367922306,0.003195793367922306,0.004261057823896408,-0.14006079733371735,-0.5363011956214905,10.004171371459961
1713723961855397100,0.003195793367922306,0.003195793367922306,0.00532632227987051,-0.11971008032560349,-0.5159504413604736,10.005369186401367
1713723961865397100,0.003195793367922306,0.003195793367922306,0.00532632227987051,-0.12689268589019775,-0.5207388401031494,10.008959770202637
1713723961874397100,0.003195793367922306,0.004261057823896408,0.00532632227987051,-0.14724339544773102,-0.5374982953071594,10.006566047668457
1713723961884397100,0.003195793367922306,0.004261057823896408,0.00532632227987051,-0.14724339544773102,-0.5339069962501526,10.007762908935547
1713723961894397100,0.003195793367922306,0.003195793367922306,0.00532632227987051,-0.13527239859104156,-0.5243301391601562,10.006566047668457
1713723961903397100,0.003195793367922306,0.003195793367922306,0.00532632227987051,-0.13527239859104156,-0.5279214382171631,10.004171371459961
1713723961913397100,0.003195793367922306,0.003195793367922306,0.00532632227987051,-0.1412578970193863,-0.5434837937355042,10.007762908935547
1713723961922397100,0.003195793367922306,0.002130528911948204,0.00532632227987051,-0.1364694982767105,-0.5351040959358215,10.002974510192871
1713723961932397100,0.003195793367922306,0.003195793367922306,0.00532632227987051,-0.12928688526153564,-0.5159504413604736,10.002974510192871
1713723961942397100,0.003195793367922306,0.003195793367922306,0.004261057823896408,-0.1304839849472046,-0.5303156971931458,10.011354446411133
1713723961951397100,0.003195793367922306,0.002130528911948204,0.00532632227987051,-0.13527239859104156,-0.5446808934211731,10.008959770202637
1713723961961397100,0.003195793367922306,0.003195793367922306,0.00532632227987051,-0.1304839849472046,-0.5315127968788147,10.008959770202637
1713723961970397100,0.003195793367922306,0.003195793367922306,0.00532632227987051,-0.12928688526153564,-0.5195417404174805,10.010157585144043
1713723961980397100,0.003195793367922306,0.003195793367922306,0.00532632227987051,-0.14365209639072418,-0.5279214382171631,10.002974510192871
1713723961989397100,0.003195793367922306,0.002130528911948204,0.00532632227987051,-0.14604629576206207,-0.5339069962501526,10.002974510192871
1713723961999397100,0.003195793367922306,0.003195793367922306,0.00532632227987051,-0.13527239859104156,-0.5255272388458252,10.004171371459961
1713723962009397100,0.003195793367922306,0.003195793367922306,0.00532632227987051,-0.13527239859104156,-0.5279214382171631,10.004171371459961
1713723962018397100,0.003195793367922306,0.003195793367922306,0.00532632227987051,-0.14484919607639313,-0.5410895943641663,10.011354446411133
1713723962028397100,0.003195793367922306,0.003195793367922306,0.00532632227987051,-0.14006079733371735,-0.5363011956214905,10.008959770202637
1713723962037397100,0.004261057823896408,0.002130528911948204,0.00532632227987051,-0.12449848651885986,-0.5195417404174805,10.001777648925781
1713723962048397100,0.003195793367922306,0.002130528911948204,0.00532632227987051,-0.12689268589019775,-0.5159504413604736,10.007762908935547
1713723962057397100,0.003195793367922306,0.003195793367922306,0.00532632227987051,-0.1412578970193863,-0.5339069962501526,10.004171371459961
1713723962066397100,0.003195793367922306,0.003195793367922306,0.00532632227987051,-0.14604629576206207,-0.5386953949928284,10.002974510192871
1713723962076397100,0.003195793367922306,0.003195793367922306,0.00532632227987051,-0.1280897855758667,-0.5279214382171631,10.010157585144043
1713723962085397100,0.003195793367922306,0.003195793367922306,0.00532632227987051,-0.11971008032560349,-0.529118537902832,10.007762908935547
1713723962095397100,0.003195793367922306,0.002130528911948204,0.00532632227987051,-0.1388636976480484,-0.5351040959358215,10.006566047668457
1713723962104397100,0.003195793367922306,0.002130528911948204,0.00532632227987051,-0.14245499670505524,-0.5327098965644836,10.006566047668457
1713723962114397100,0.003195793367922306,0.003195793367922306,0.00532632227987051,-0.13168108463287354,-0.5183446407318115,10.007762908935547
1713723962124397100,0.003195793367922306,0.003195793367922306,0.00532632227987051,-0.1364694982767105,-0.5183446407318115,10.006566047668457
1713723962134397100,0.003195793367922306,0.002130528911948204,0.00532632227987051,-0.14844051003456116,-0.5303156971931458,10.005369186401367
1713723962143397100,0.003195793367922306,0.002130528911948204,0.00532632227987051,-0.14006079733371735,-0.5231330394744873,10.008959770202637
1713723962152397100,0.003195793367922306,0.002130528911948204,0.00532632227987051,-0.1304839849472046,-0.5207388401031494,10.013748168945312
1713723962162397100,0.003195793367922306,0.003195793367922306,0.00532632227987051,-0.13407529890537262,-0.5363011956214905,10.013748168945312
1713723962172397100,0.003195793367922306,0.003195793367922306,0.00532632227987051,-0.1388636976480484,-0.5374982953071594,10.006566047668457
1713723962182397100,0.003195793367922306,0.002130528911948204,0.00532632227987051,-0.13287819921970367,-0.5255272388458252,10.013748168945312
1713723962191397100,0.003195793367922306,0.003195793367922306,0.00532632227987051,-0.12689268589019775,-0.5243301391601562,10.016142845153809
1713723962201397100,0.003195793367922306,0.003195793367922306,0.004261057823896408,-0.14484919607639313,-0.5363011956214905,9.999382972717285
1713723962210397100,0.003195793367922306,0.003195793367922306,0.00532632227987051,-0.15083470940589905,-0.5398924946784973,9.999382972717285
1713723962220397100,0.003195793367922306,0.003195793367922306,0.00532632227987051,-0.13168108463287354,-0.5315127968788147,10.008959770202637
1713723962230397100,0.003195793367922306,0.003195793367922306,0.004261057823896408,-0.13287819921970367,-0.5255272388458252,10.011354446411133
1713723962239397100,0.003195793367922306,0.003195793367922306,0.00532632227987051,-0.14484919607639313,-0.5315127968788147,10.008959770202637
1713723962248397100,0.003195793367922306,0.002130528911948204,0.00532632227987051,-0.1364694982767105,-0.5327098965644836,10.002974510192871
1713723962258397100,0.004261057823896408,0.002130528911948204,0.00532632227987051,-0.12210428714752197,-0.5195417404174805,10.001777648925781
1713723962268397100,0.003195793367922306,0.002130528911948204,0.00532632227987051,-0.1304839849472046,-0.5303156971931458,10.002974510192871
1713723962278397100,0.003195793367922306,0.003195793367922306,0.00532632227987051,-0.14604629576206207,-0.545877993106842,10.006566047668457
1713723962287397100,0.003195793367922306,0.003195793367922306,0.00532632227987051,-0.1364694982767105,-0.5374982953071594,10.014945983886719
1713723962297397100,0.003195793367922306,0.003195793367922306,0.00532632227987051,-0.12210428714752197,-0.5315127968788147,10.017339706420898
1713723962306397100,0.003195793367922306,0.002130528911948204,0.00532632227987051,-0.13168108463287354,-0.5339069962501526,10.007762908935547
1713723962317397100,0.003195793367922306,0.003195793367922306,0.00532632227987051,-0.14365209639072418,-0.5422866940498352,10.001777648925781
1713723962325397100,0.003195793367922306,0.003195793367922306,0.00532632227987051,-0.13407529890537262,-0.5374982953071594,10.006566047668457
1713723962335397100,0.004261057823896408,0.003195793367922306,0.00532632227987051,-0.12689268589019775,-0.529118537902832,10.008959770202637
1713723962345397100,0.004261057823896408,0.002130528911948204,0.00532632227987051,-0.21428105235099792,-0.5099649429321289,10.356119155883789
1713723962354397100,0.019174760207533836,-0.002130528911948204,0.004261057823896408,-0.08858545869588852,-0.386663556098938,10.426748275756836
1713723962364397100,0.03302319720387459,0.004261057823896408,0.004261057823896408,0.23104046285152435,0.16160860657691956,10.649409294128418
1713723962373397100,0.07776430249214172,0.01810949482023716,0.003195793367922306,0.20231004059314728,0.5518634915351868,10.287884712219238
1713723962383397100,0.10759171098470688,0.019174760207533836,-0.011717909015715122,-0.05267243832349777,0.8020575642585754,9.05606746673584
1713723962393397100,0.08948221057653427,0.012783173471689224,0.0,-0.25258827209472656,2.1332337856292725,10.281899452209473
1713723962403397100,0.0884169489145279,-0.006391586735844612,-0.01810949482023716,-0.3124433159828186,3.022679567337036,10.613495826721191
1713723962412397100,0.058589544147253036,-0.019174760207533836,-0.015978965908288956,-0.0454898327589035,2.5701754093170166,8.580819129943848
1713723962421397100,-0.03834952041506767,-0.019174760207533836,-0.017044231295585632,0.3842693567276001,3.0585925579071045,10.244789123535156
1713723962431397100,-0.047936901450157166,-0.006391586735844612,-0.03621898964047432,0.6129156351089478,3.1196448802948,11.238382339477539
1713723962440397100,-0.04687163606286049,0.01810949482023716,-0.026631610468029976,0.569819986820221,1.4915876388549805,8.588001251220703
1713723962450397100,-0.07563377171754837,0.03834952041506767,-0.034088462591171265,0.16759411990642548,1.0977414846420288,9.363722801208496
1713723962460397100,-0.03941478580236435,0.03302319720387459,-0.026631610468029976,-0.4596867263317108,1.3060369491577148,10.490194320678711
1713723962469397100,-0.020240023732185364,0.012783173471689224,-0.034088462591171265,-0.8463503122329712,0.9828197956085205,10.019734382629395
1713723962479397100,0.004261057823896408,-0.013848437927663326,-0.015978965908288956,-0.8822633028030396,0.833182156085968,9.84615421295166
1713723962488397100,0.003195793367922306,-0.034088462591171265,-0.026631610468029976,-0.5231330394744873,1.1719616651535034,10.211270332336426
1713723962498397100,0.006391586735844612,-0.041545312851667404,-0.022370552644133568,0.104147769510746,1.6268600225448608,11.006145477294922
1713723962508397100,-0.001065264455974102,-0.02876213937997818,-0.044741105288267136,0.6440402269363403,1.4437036514282227,10.814608573913574
1713723962517397100,-0.02130528911948204,0.006391586735844612,-0.03941478580236435,0.8164227604866028,1.0534486770629883,10.897209167480469
1713723962527397100,-0.013848437927663326,0.03302319720387459,-0.05006742849946022,0.47644612193107605,0.31364041566848755,10.168174743652344
1713723962537397100,0.015978965908288956,0.029827404767274857,-0.041545312851667404,-0.4692635238170624,-0.7781155109405518,9.208099365234375
1713723962546397100,0.029827404767274857,0.01065264455974102,-0.014913702383637428,-0.9971849918365479,-0.6560112833976746,9.21288776397705
1713723962556397100,0.05965480953454971,-0.008522115647792816,-0.022370552644133568,-0.629675030708313,0.41539397835731506,9.288305282592773
1713723962565397100,0.030892668291926384,-0.011717909015715122,-0.007456851191818714,-0.15442600846290588,1.1683703660964966,9.923965454101562
1713723962575397100,-0.015978965908288956,-0.006391586735844612,-0.029827404767274857,0.26336216926574707,1.358709454536438,10.395623207092285
1713723962585397100,-0.07669904083013535,0.00532632227987051,-0.020240023732185364,0.44651859998703003,0.7577648162841797,10.2962646484375
1713723962594397100,-0.06817692518234253,-0.004261057823896408,-0.04261057823896408,-0.6129156351089478,-1.035492181777954,10.705672264099121
1713723962604397100,-0.012783173471689224,-0.037284255027770996,-0.01810949482023716,-1.4496891498565674,-3.046621561050415,9.977835655212402
1713723962613397100,0.044741105288267136,-0.03834952041506767,0.0,0.2346317619085312,-1.98958158493042,9.460687637329102
1713723962623397100,0.1065264418721199,0.00532632227987051,-0.02876213937997818,1.6627730131149292,0.0035913025494664907,9.227252960205078
1713723962632397100,0.092678003013134,0.06604639440774918,-0.03515372797846794,1.137245774269104,0.8224082589149475,8.401253700256348
1713723962642397100,0.003195793367922306,0.09054747968912125,-0.04261057823896408,-0.0933738648891449,2.100911855697632,10.109516143798828
1713723962651397100,-0.09800432622432709,0.06391586363315582,-0.047936901450157166,-1.2509703636169434,2.298433542251587,11.973402976989746
1713723962662397100,-0.12144014239311218,-0.04580637067556381,-0.03834952041506767,-3.555389404296875,-1.5275006294250488,12.474987983703613
1713723962671397100,-0.07137271761894226,-0.18748654425144196,0.019174760207533836,-4.316745758056641,-6.129156112670898,11.206060409545898
1713723962680397100,0.06072007119655609,-0.1672465205192566,0.09054747968912125,1.9608511924743652,-5.0912699699401855,9.648633003234863
1713723962690397100,0.20985709130764008,-0.015978965908288956,-0.041545312851667404,5.0481743812561035,-1.4975731372833252,9.4822359085083
1713723962699397100,0.2727077007293701,0.14594122767448425,-0.01065264455974102,2.515108823776245,0.39624038338661194,7.904456615447998
1713723962710397100,0.20133498311042786,0.20240023732185364,-0.06711165606975555,0.7266402244567871,2.558204412460327,8.134300231933594
1713723962719397100,0.06604639440774918,0.1672465205192566,-0.006391586735844612,-1.6316484212875366,4.564545631408691,9.737217903137207
1713723962729397100,-0.12250541150569916,0.07456851005554199,-0.020240023732185364,-2.8562824726104736,4.537012100219727,10.45787239074707
1713723962738397100,-0.2737729549407959,-0.022370552644133568,0.006391586735844612,-2.653972625732422,2.6180593967437744,10.626664161682129
1713723962748248991,-0.23435817658901215,-0.15126754343509674,0.011717909015715122,-3.3626561164855957,-2.316390037536621,9.872490882873535
1713723962757248991,-0.1619201898574829,-0.21411815285682678,0.06711165606975555,-1.965639591217041,-5.531803131103516,8.924386978149414
1713723962767248991,0.002130528911948204,-0.13528858125209808,0.055393751710653305,2.6431987285614014,-3.3961751461029053,9.801861763000488
1713723962776248991,0.10120011866092682,0.0,-0.022370552644133568,4.40892219543457,-0.6165069341659546,10.396821022033691
1713723962786248991,0.08522115647792816,0.1342233121395111,-0.020240023732185364,3.0597896575927734,0.7649474143981934,10.686518669128418
1713723962796248991,-0.01065264455974102,0.1757686287164688,-0.058589544147253036,0.5171475410461426,1.0809820890426636,12.31098461151123
1713723962805248991,0.002130528911948204,0.05752427875995636,-0.044741105288267136,-4.013879299163818,-1.8255788087844849,11.383232116699219
1713723962815248991,-0.009587380103766918,-0.08202536404132843,0.04048004746437073,-3.8355109691619873,-4.062960147857666,9.313444137573242
1713723962825248991,0.08735168725252151,-0.1065264418721199,0.02876213937997818,0.5841851830482483,-1.646013617515564,9.384073257446289
1713723962834248991,0.14274543523788452,-0.03515372797846794,0.0,2.1284453868865967,0.628477931022644,9.108739852905273
1713723962844248991,0.12144014239311218,0.0511326938867569,-0.011717909015715122,2.0853495597839355,1.577778935432434,8.20851993560791
1713723962853248991,0.013848437927663326,0.10759171098470688,-0.012783173471689224,0.9840168952941895,2.7317841053009033,9.464279174804688
1713723962863248991,-0.1065264418721199,0.10865697264671326,-0.03515372797846794,-0.6236895322799683,2.917334794998169,10.45547866821289
1713723962872248991,-0.18855179846286774,0.047936901450157166,-0.01065264455974102,-2.63362193107605,1.016338586807251,11.36048698425293
1713723962882248991,-0.12250541150569916,-0.08522115647792816,-0.00532632227987051,-4.32991361618042,-2.919728994369507,9.747992515563965
1713723962892248991,-0.10439591109752655,-0.148071750998497,0.0788295716047287,-1.5191209316253662,-3.398569345474243,8.990227699279785
1713723962901248991,0.012783173471689224,-0.10546118021011353,0.008522115647792816,2.564189910888672,-1.0007762908935547,10.14902114868164
1713723962911248991,-0.026631610468029976,0.012783173471689224,0.014913702383637428,3.269282341003418,-0.09816227108240128,11.224017143249512
1713723962920248991,-0.047936901450157166,0.09161274135112762,-0.02556634694337845,1.8495208024978638,-0.5351040959358215,13.449427604675293
1713723962930248991,0.052197955548763275,0.055393751710653305,-0.04687163606286049,-2.185906171798706,-4.444835186004639,11.280281066894531
1713723962940248991,0.07137271761894226,-0.004261057823896408,0.06178533658385277,-2.0195090770721436,-4.99550199508667,8.954314231872559
1713723962949248991,0.222640261054039,-0.013848437927663326,-0.004261057823896408,1.2114660739898682,-1.2258312702178955,8.3306245803833
1713723962959248991,0.1896170675754547,0.052197955548763275,0.008522115647792816,1.2641384601593018,1.7118542194366455,8.752004623413086
1713723962968248991,0.14061491191387177,0.07669904083013535,-0.037284255027770996,0.22864626348018646,3.5458126068115234,8.899247169494629
1713723962978248991,-0.020240023732185364,0.0649811327457428,0.0,-0.9876081943511963,4.077325344085693,8.825027465820312
1713723962988248991,-0.1757686287164688,0.012783173471689224,-0.026631610468029976,-1.5670050382614136,3.5482068061828613,10.183736801147461
1713723962997248991,-0.26738137006759644,-0.04261057823896408,0.011717909015715122,-1.235408067703247,1.2533645629882812,10.617087364196777
1713723963007248991,-0.17470337450504303,-0.11398329585790634,-0.001065264455974102,-1.9536685943603516,-3.265691041946411,9.441534042358398
1713723963017248991,-0.10972223430871964,-0.12250541150569916,0.06072007119655609,-0.690727174282074,-4.993107795715332,8.769960403442383
1713723963026248991,0.022370552644133568,-0.052197955548763275,0.01810949482023716,2.673126220703125,-2.100911855697632,10.63743782043457
1713723963035248991,0.023435818031430244,0.06072007119655609,-0.013848437927663326,3.228580951690674,-0.10175357013940811,12.667720794677734
1713723963045248991,0.023435818031430244,0.1065264418721199,-0.04580637067556381,0.4920084476470947,-1.2641384601593018,13.583502769470215
1713723963055248991,0.09374327212572098,0.030892668291926384,-0.02876213937997818,-3.3195605278015137,-5.110423564910889,11.320982933044434
1713723963064248991,0.12250541150569916,-0.03621898964047432,0.06604639440774918,-1.5526397228240967,-4.1395745277404785,9.391256332397461
1713723963074248991,0.26631611585617065,-0.024501081556081772,-0.007456851191818714,1.8255788087844849,-0.39863458275794983,7.979874134063721
1713723963083248991,0.22370553016662598,0.06604639440774918,0.0,1.5382745265960693,1.5358803272247314,7.264008045196533
1713723963093248991,0.12889699637889862,0.10546118021011353,-0.02556634694337845,0.28969839215278625,3.9588124752044678,8.820239067077637
1713723963102248991,-0.030892668291926384,0.08202536404132843,-0.017044231295585632,-1.3263877630233765,4.944026470184326,9.515754699707031
1713723963112248991,-0.20559602975845337,0.011717909015715122,-0.00532632227987051,-2.117671251296997,3.9384617805480957,9.797073364257812
1713723963122248991,-0.30892667174339294,-0.05965480953454971,0.009587380103766918,-1.6891093254089355,1.380257248878479,10.54645824432373
1713723963131248991,-0.2045307755470276,-0.1395496428012848,0.014913702383637428,-2.160767078399658,-3.420117139816284,9.587580680847168
1713723963141248991,-0.12783172726631165,-0.14168016612529755,0.07456851005554199,-0.14006079733371735,-5.585672378540039,9.515754699707031
1713723963151248991,0.008522115647792816,-0.04687163606286049,0.019174760207533836,3.3674447536468506,-2.7772738933563232,11.57357120513916
1713723963160248991,0.04580637067556381,0.07669904083013535,-0.02130528911948204,3.423708438873291,-1.0199298858642578,12.643778800964355
1713723963170248991,0.08628641813993454,0.09800432622432709,-0.05006742849946022,0.06703764945268631,-2.742558002471924,12.278663635253906
1713723963179248991,0.11824434995651245,0.03515372797846794,0.006391586735844612,-2.9652187824249268,-4.671087265014648,10.320206642150879
1713723963189248991,0.1715075671672821,-0.013848437927663326,0.02556634694337845,-1.0199298858642578,-2.0482394695281982,9.653421401977539
1713723963198248991,0.24714134633541107,0.002130528911948204,0.0,1.1121066808700562,1.0690110921859741,8.576030731201172
1713723963208248991,0.1992044448852539,0.04687163606286049,-0.014913702383637428,0.8391676545143127,2.230198860168457,7.224503517150879
1713723963218248991,0.07350324839353561,0.06178533658385277,0.0,-0.038307227194309235,3.867832899093628,8.310274124145508
1713723963228248991,-0.08309062570333481,0.03941478580236435,-0.02130528911948204,-0.8846575021743774,4.479551315307617,9.744400978088379
1713723963237248991,-0.22903186082839966,0.004261057823896408,0.003195793367922306,-1.1276689767837524,3.088520050048828,10.170568466186523
1713723963246248991,-0.287621408700943,-0.04367584362626076,-0.004261057823896408,-1.3311761617660522,0.03232172131538391,11.071985244750977
1713723963256248991,-0.1533980816602707,-0.12144014239311218,0.0,-2.650381326675415,-4.997896194458008,10.11789608001709
1713723963266248991,-0.08309062570333481,-0.12676647305488586,0.07989483326673508,-0.2238578498363495,-5.60722017288208,9.673771858215332
1713723963276248991,0.07243797928094864,-0.044741105288267136,-0.014913702383637428,3.535038709640503,-1.9620482921600342,11.281477928161621
1713723963285248991,0.049002163112163544,0.07989483326673508,-0.004261057823896408,3.265691041946411,-0.365115761756897,11.976993560791016
1713723963295248991,0.049002163112163544,0.12676647305488586,-0.07030745595693588,0.568622887134552,-0.970848798751831,12.647370338439941
1713723963304248991,0.10865697264671326,0.06711165606975555,-0.02556634694337845,-2.9652187824249268,-3.6523547172546387,10.004171371459961
1713723963314248991,0.12144014239311218,-0.006391586735844612,0.03621898964047432,-1.9608511924743652,-2.5498247146606445,8.765172004699707
1713723963323248991,0.21411815285682678,-0.020240023732185364,-0.004261057823896408,0.48722004890441895,0.5327098965644836,8.438364028930664
1713723963333248991,0.15446333587169647,0.011717909015715122,0.01065264455974102,0.4273650050163269,1.9835960865020752,7.621941089630127
1713723963343248991,0.05326322093605995,0.020240023732185364,-0.008522115647792816,0.06344634294509888,3.6068646907806396,8.973467826843262
1713723963352248991,-0.08309062570333481,0.017044231295585632,-0.002130528911948204,-0.33039984107017517,3.892971992492676,9.657011985778809
1713723963362248991,-0.21944446861743927,0.004261057823896408,-0.013848437927663326,-0.46806642413139343,2.632424831390381,10.272322654724121
1713723963372248991,-0.2460760921239853,-0.029827404767274857,-0.004261057823896408,-1.0833762884140015,-0.30286651849746704,10.969035148620605
1713723963381248991,-0.1257012039422989,-0.1022653877735138,0.004261057823896408,-2.535459518432617,-4.972756862640381,9.998186111450195
1713723963391248991,-0.05326322093605995,-0.09906959533691406,0.06924218684434891,-0.09935937076807022,-5.1786580085754395,10.20887565612793
1713723963400248991,0.08522115647792816,-0.020240023732185364,-0.01065264455974102,3.359064817428589,-1.8638859987258911,11.724405288696289
1713723963410248991,0.05645901337265968,0.08628641813993454,-0.007456851191818714,2.7712883949279785,-0.6775590777397156,12.069170951843262
1713723963419248991,0.11185276508331299,0.09480853378772736,-0.06924218684434891,-0.4405331015586853,-2.0614075660705566,10.949881553649902
1713723963429248991,0.11078750342130661,0.04261057823896408,0.012783173471689224,-2.385822057723999,-2.844311475753784,8.826224327087402
1713723963439248991,0.1810949593782425,-0.012783173471689224,0.007456851191818714,-1.0534486770629883,-0.44173020124435425,8.286332130432129
1713723963448248991,0.15978966653347015,-0.009587380103766918,-0.003195793367922306,-0.2214636504650116,1.941697597503662,8.719682693481445
1713723963458248991,0.08948221057653427,-0.007456851191818714,-0.007456851191818714,-0.2908954918384552,3.1747114658355713,9.068038940429688
1713723963467248991,-0.05326322093605995,-0.015978965908288956,0.008522115647792816,-0.23104046285152435,3.3255460262298584,9.81383228302002
1713723963477248991,-0.18429075181484222,-0.01810949482023716,-0.013848437927663326,0.026336219161748886,2.2685060501098633,10.664971351623535
1713723963487248991,-0.20559602975845337,-0.037284255027770996,-0.008522115647792816,-0.8870517015457153,-0.7613561153411865,11.280281066894531
1713723963496248991,-0.08096009492874146,-0.1022653877735138,-0.002130528911948204,-2.234987258911133,-5.117606163024902,9.5995512008667
1713723963506248991,0.0,-0.08948221057653427,0.05965480953454971,0.4141968786716461,-4.513070106506348,9.380481719970703
1713723963515248991,0.1395496428012848,-0.014913702383637428,-0.023435818031430244,3.1747114658355713,-1.1216834783554077,10.45667552947998
1713723963525248991,0.07989483326673508,0.08522115647792816,-0.011717909015715122,2.3535001277923584,0.2238578498363495,11.073183059692383
1713723963534248991,0.009587380103766918,0.12144014239311218,-0.04048004746437073,0.38546645641326904,0.7086836695671082,12.552799224853516
1713723963544248991,0.05965480953454971,0.041545312851667404,-0.044741105288267136,-3.181894063949585,-2.142810583114624,10.092757225036621
1713723963554248991,0.041545312851667404,-0.05432848632335663,0.04687163606286049,-3.1004910469055176,-2.876633405685425,8.310274124145508
1713723963563248991,0.15446333587169647,-0.09693906456232071,-0.001065264455974102,0.06703764945268631,-0.23582886159420013,8.063671112060547
1713723963573248991,0.1022653877735138,-0.05645901337265968,0.02130528911948204,1.2856862545013428,1.8555063009262085,9.163806915283203
1713723963582248991,0.037284255027770996,-0.00532632227987051,-0.023435818031430244,1.6136919260025024,3.023876667022705,10.450690269470215
1713723963593248991,-0.08415588736534119,0.04687163606286049,-0.006391586735844612,1.113303780555725,2.404975652694702,9.84376049041748
1713723963601248991,-0.16831177473068237,0.05752427875995636,-0.04048004746437073,0.10295066982507706,0.954089343547821,10.380061149597168
1713723963611248991,-0.0788295716047287,-0.019174760207533836,-0.03834952041506767,-2.5773580074310303,-2.670732021331787,9.309853553771973
1713723963621248991,-0.06391586363315582,-0.08415588736534119,0.04261057823896408,-2.431311845779419,-3.7217864990234375,9.193734169006348
1713723963631248991,0.04687163606286049,-0.0884169489145279,0.004261057823896408,0.8966284990310669,-1.0307037830352783,10.564414978027344
1713723963640248991,0.007456851191818714,-0.009587380103766918,0.019174760207533836,2.2230162620544434,0.43933600187301636,11.8225679397583
1713723963650248991,-0.019174760207533836,0.05965480953454971,-0.030892668291926384,1.6364368200302124,-0.05147533491253853,12.716801643371582
1713723963659248991,0.055393751710653305,0.03195793181657791,-0.030892668291926384,-1.6783353090286255,-3.6391866207122803,10.286687850952148
1713723963669248991,0.06817692518234253,-0.027696875855326653,0.030892668291926384,-2.211045265197754,-4.150348663330078,8.69454288482666
1713723963679248991,0.20240023732185364,-0.049002163112163544,0.003195793367922306,0.3734954595565796,-0.7206547260284424,8.146270751953125
1713723963688248991,0.15020228922367096,-0.00532632227987051,0.003195793367922306,1.113303780555725,2.0195090770721436,9.131484985351562
1713723963698248991,0.07030745595693588,0.026631610468029976,-0.034088462591171265,0.8738836050033569,3.536235809326172,10.277111053466797
1713723963707248991,-0.07776430249214172,0.04367584362626076,-0.002130528911948204,0.12689268589019775,3.087322950363159,9.791088104248047
1713723963717248991,-0.18748654425144196,0.02876213937997818,-0.030892668291926384,-0.545877993106842,1.7286136150360107,9.980229377746582
1713723963727248991,-0.13315805792808533,-0.044741105288267136,-0.011717909015715122,-1.8986018896102905,-1.765723705291748,9.271546363830566
1713723963736248991,-0.09906959533691406,-0.09693906456232071,0.03941478580236435,-1.5358803272247314,-3.489548921585083,9.096769332885742
1713723963746248991,-0.001065264455974102,-0.07137271761894226,0.024501081556081772,1.1707645654678345,-1.5275006294250488,10.350133895874023
1713723963755248991,0.0,0.013848437927663326,0.017044231295585632,2.5031378269195557,-0.20470423996448517,11.856086730957031
1713723963765248991,0.004261057823896408,0.0788295716047287,-0.020240023732185364,1.1839326620101929,-1.058237075805664,12.931082725524902
1713723963774248991,0.08948221057653427,0.049002163112163544,-0.02130528911948204,-2.40736985206604,-4.41969633102417,10.94030475616455
1713723963784248991,0.10333064943552017,-0.020240023732185364,0.04261057823896408,-2.5067291259765625,-4.180275917053223,9.308655738830566
1713723963794248991,0.222640261054039,-0.05645901337265968,0.011717909015715122,0.20111294090747833,-0.6141127347946167,8.564059257507324
1713723963803248991,0.1619201898574829,-0.022370552644133568,0.01065264455974102,0.9564835429191589,1.8579005002975464,8.833407402038574
1713723963813248991,0.08948221057653427,0.01810949482023716,-0.01065264455974102,1.0103530883789062,3.4344823360443115,9.805453300476074
1713723963822248991,-0.04261057823896408,0.049002163112163544,0.002130528911948204,0.6631938815116882,3.2800562381744385,9.285911560058594
1713723963832248991,-0.1619201898574829,0.05752427875995636,-0.007456851191818714,0.04668693244457245,2.274491548538208,9.6989107131958
1713723963842248991,-0.17789916694164276,0.023435818031430244,0.004261057823896408,-1.3180080652236938,0.08619125932455063,10.097545623779297
1713723963852248991,-0.09587380290031433,-0.06178533658385277,0.015978965908288956,-2.7066450119018555,-3.090914249420166,8.969876289367676
1713723963861248991,-0.05752427875995636,-0.09587380290031433,0.07669904083013535,-0.37229835987091064,-2.5893290042877197,9.412803649902344
1713723963871248991,0.017044231295585632,-0.0511326938867569,0.019174760207533836,2.699462413787842,-0.38786065578460693,11.14620590209961
1713723963880248991,-0.034088462591171265,0.05645901337265968,0.017044231295585632,2.7006595134735107,-0.2585737705230713,11.908759117126465
1713723963889248991,0.001065264455974102,0.08202536404132843,-0.03621898964047432,-0.6344634294509888,-2.578555107116699,12.746729850769043
1713723963900248991,0.08735168725252151,-0.00532632227987051,0.01065264455974102,-3.951629877090454,-5.9519853591918945,10.630255699157715
1713723963909248991,0.1576591432094574,-0.06178533658385277,0.06711165606975555,-1.3479355573654175,-3.2094273567199707,9.742006301879883
1713723963918248991,0.2908172011375427,-0.05326322093605995,-0.008522115647792816,1.8100165128707886,0.7338228225708008,8.42040729522705
1713723963928248991,0.21624867618083954,0.022370552644133568,0.014913702383637428,1.647210717201233,2.1308395862579346,7.407660007476807
1713723963938248991,0.08309062570333481,0.06285060197114944,-0.02556634694337845,0.6129156351089478,4.146757125854492,9.676165580749512
1713723963947248991,-0.06391586363315582,0.06072007119655609,0.014913702383637428,-0.39384618401527405,4.322731018066406,9.817423820495605
1713723963957248991,-0.23968449234962463,0.030892668291926384,0.03195793181657791,-0.5147533416748047,2.935291290283203,9.834183692932129
1713723963966248991,-0.28975191712379456,0.014913702383637428,0.015978965908288956,-0.31364041566848755,0.5339069962501526,10.42195987701416
1713723963976248991,-0.148071750998497,-0.06178533658385277,0.012783173471689224,-2.3523030281066895,-4.313154220581055,8.65982723236084
1713723963986248991,-0.1022653877735138,-0.1022653877735138,0.08735168725252151,-1.0295066833496094,-4.7824177742004395,9.198522567749023
1713723963995248991,0.06391586363315582,-0.04687163606286049,0.026631610468029976,3.0334534645080566,-1.2078747749328613,10.808623313903809
1713723964005248991,0.006391586735844612,0.08415588736534119,0.01810949482023716,3.3746273517608643,0.3495534360408783,12.42351245880127
1713723964014248991,-0.01065264455974102,0.15552860498428345,-0.03302319720387459,0.7146691679954529,-0.5267243385314941,14.747085571289062
1713723964024248991,0.10439591109752655,0.06178533658385277,-0.02876213937997818,-4.288015365600586,-5.5760955810546875,11.128249168395996
1713723964034248991,0.1203748807311058,-0.04261057823896408,0.06924218684434891,-3.5613749027252197,-5.553350925445557,8.145073890686035
1713723964043248991,0.30466562509536743,-0.09374327212572098,0.013848437927663326,0.5877764821052551,-0.729034423828125,7.5884222984313965
1713723964053248991,0.23009711503982544,-0.04580637067556381,0.020240023732185364,1.40180504322052,2.474407434463501,8.522160530090332
1713723964062248991,0.148071750998497,0.0,-0.02876213937997818,1.0486602783203125,4.580107688903809,9.204507827758789
1713723964072248991,-0.04261057823896408,0.030892668291926384,0.027696875855326653,0.4381389021873474,4.807557106018066,9.194931030273438
1713723964082248991,-0.20026971399784088,0.03302319720387459,-0.01810949482023716,0.34356793761253357,3.755305290222168,9.945513725280762
1713723964091248991,-0.2886866629123688,0.04367584362626076,0.04367584362626076,0.6835445761680603,1.5729905366897583,9.241618156433105
1713723964101248991,-0.23009711503982544,0.03195793181657791,-0.026631610468029976,-0.6859387755393982,-1.6795324087142944,9.704895973205566
1713723964110248991,-0.10013485699892044,-0.030892668291926384,0.024501081556081772,-2.537853717803955,-5.279214859008789,9.410409927368164
1713723964120248991,-0.041545312851667404,-0.055393751710653305,0.06391586363315582,0.004788403399288654,-3.709815502166748,11.66694450378418
1713723964130248991,0.03302319720387459,0.001065264455974102,0.002130528911948204,2.4229321479797363,-0.9241618514060974,13.383586883544922
1713723964139248991,0.04687163606286049,0.03941478580236435,-0.02130528911948204,0.15801730751991272,-3.201047658920288,12.320561408996582
1713723964148248991,0.11824434995651245,-0.007456851191818714,-0.006391586735844612,-2.4851813316345215,-5.705382347106934,10.54526138305664
1713723964158248991,0.19387812912464142,-0.03515372797846794,0.047936901450157166,-0.727837324142456,-2.765302896499634,9.585186004638672
1713723964168248991,0.3153182864189148,-0.017044231295585632,-0.013848437927663326,1.8962076902389526,1.016338586807251,8.394070625305176
1713723964178248991,0.24927188456058502,0.05432848632335663,-0.004261057823896408,1.502361536026001,2.516305923461914,7.048529624938965
1713723964187248991,0.10120011866092682,0.07669904083013535,-0.023435818031430244,0.20111294090747833,4.592078685760498,8.917203903198242
1713723964197248991,-0.06604639440774918,0.055393751710653305,-0.001065264455974102,-0.872686505317688,5.080495834350586,9.832985877990723
1713723964207248991,-0.24501082301139832,0.015978965908288956,0.020240023732185364,-0.9720458984375,3.550601005554199,9.733627319335938
1713723964216248991,-0.3206445872783661,-0.009587380103766918,0.007456851191818714,-0.31124621629714966,1.0043675899505615,9.734824180603027
1713723964226248991,-0.19387812912464142,-0.07989483326673508,-0.007456851191818714,-1.9728221893310547,-3.9181110858917236,9.108739852905273
1713723964235248991,-0.13209278881549835,-0.12144014239311218,0.0649811327457428,-1.4867992401123047,-5.590460777282715,9.989806175231934
1713723964245248991,0.014913702383637428,-0.06604639440774918,0.030892668291926384,2.721010208129883,-2.3319523334503174,12.284648895263672
1713723964255248991,0.015978965908288956,0.07137271761894226,0.0,3.803189277648926,-0.8224082589149475,13.633781433105469
1713723964264248991,0.1161138266324997,0.12250541150569916,-0.06285060197114944,-0.23104046285152435,-3.5829226970672607,12.336124420166016
1713723964274248991,0.16511598229408264,0.06391586363315582,0.023435818031430244,-3.5721487998962402,-5.813121795654297,9.30386734008789
1713723964283248991,0.25672873854637146,-0.00532632227987051,0.03515372797846794,-1.5179238319396973,-1.9919757843017578,8.913612365722656
1713723964293248991,0.29401299357414246,-0.026631610468029976,0.01810949482023716,0.6416460275650024,2.169146776199341,8.797493934631348
1713723964302248991,0.21624867618083954,0.002130528911948204,0.008522115647792816,0.6476315259933472,3.6978445053100586,7.612364292144775
1713723964312248991,0.041545312851667404,0.013848437927663326,0.01065264455974102,0.1843535304069519,4.845864295959473,8.341398239135742
1713723964322248991,-0.1299622654914856,0.014913702383637428,0.014913702383637428,0.05746084079146385,4.790797710418701,9.408015251159668
1713723964331248991,-0.2833603322505951,0.020240023732185364,0.019174760207533836,0.30526071786880493,3.1028852462768555,9.731232643127441
1713723964341248991,-0.3387540876865387,0.027696875855326653,0.017044231295585632,0.6739677786827087,0.4836287498474121,10.401609420776367
1713723964350248991,-0.1768338978290558,-0.030892668291926384,-0.020240023732185364,-2.007538080215454,-4.873397350311279,9.621099472045898
1713723964360248991,-0.11078750342130661,-0.08948221057653427,0.07563377171754837,-2.2649147510528564,-6.70376443862915,10.187328338623047
1713723964369248991,0.04261057823896408,-0.05752427875995636,0.03621898964047432,2.3810336589813232,-2.5270798206329346,12.583924293518066
1713723964379248991,0.047936901450157166,0.07243797928094864,0.012783173471689224,3.796006679534912,-0.2059013396501541,13.121421813964844
1713723964388248991,0.08522115647792816,0.15233281254768372,-0.05326322093605995,0.8295908570289612,-1.6543933153152466,12.033257484436035
1713723964398248991,0.1533980816602707,0.1022653877735138,-0.019174760207533836,-3.33512282371521,-4.410119533538818,8.973467826843262
1713723964408248991,0.18429075181484222,0.014913702383637428,0.03834952041506767,-2.7976245880126953,-2.230198860168457,8.5903959274292
1713723964417248991,0.25246766209602356,-0.04580637067556381,0.008522115647792816,-0.17836801707744598,1.6795324087142944,8.51138687133789
1713723964427248991,0.1395496428012848,-0.03834952041506767,0.023435818031430244,0.44412440061569214,3.2561142444610596,8.134300231933594
1713723964437248991,0.0,-0.019174760207533836,-0.012783173471689224,0.7218518257141113,4.265270233154297,9.373299598693848
1713723964446248991,-0.15872439742088318,0.00532632227987051,0.02130528911948204,0.7601590156555176,3.687070608139038,9.651026725769043
1713723964456248991,-0.2641855776309967,0.02876213937997818,-0.01065264455974102,0.849941611289978,2.0207061767578125,9.81263542175293
1713723964465248991,-0.25779399275779724,0.03941478580236435,0.006391586735844612,-0.21308395266532898,-0.7565677165985107,10.712855339050293
1713723964476248991,-0.1022653877735138,-0.03515372797846794,-0.023435818031430244,-2.852691173553467,-5.294776916503906,10.099939346313477
1713723964484248991,-0.052197955548763275,-0.06711165606975555,0.08096009492874146,-0.7230489253997803,-4.990713596343994,10.66018295288086
1713723964494248991,0.08948221057653427,-0.01810949482023716,-0.004261057823896408,2.9652187824249268,-1.544260025024414,11.739968299865723
1713723964504248991,0.023435818031430244,0.09374327212572098,0.006391586735844612,2.4408886432647705,-0.651222825050354,11.7232084274292
1713723964514248991,0.10865697264671326,0.09906959533691406,-0.06604639440774918,-1.0905588865280151,-2.5306711196899414,11.613075256347656
1713723964523248991,0.13102751970291138,0.02876213937997818,0.014913702383637428,-3.377021551132202,-3.8726212978363037,9.108739852905273
1713723964532248991,0.2173139452934265,-0.0511326938867569,0.022370552644133568,-1.1959037780761719,-0.689530074596405,8.480262756347656
1713723964542248991,0.2034655064344406,-0.05965480953454971,-0.00532632227987051,0.6165069341659546,2.298433542251587,8.809465408325195
1713723964552248991,0.12357067316770554,-0.019174760207533836,-0.007456851191818714,0.9253589510917664,3.5458126068115234,8.507795333862305
1713723964562248991,-0.029827404767274857,0.014913702383637428,-0.012783173471689224,0.7625532150268555,3.9432501792907715,9.253589630126953
1713723964571248991,-0.15020228922367096,0.041545312851667404,-0.008522115647792816,0.4704606235027313,3.095702648162842,9.653421401977539
1713723964581248991,-0.24501082301139832,0.055393751710653305,0.008522115647792816,0.23822306096553802,1.3934253454208374,9.48462963104248
1713723964590248991,-0.2034655064344406,0.030892668291926384,-0.020240023732185364,-1.502361536026001,-1.2629413604736328,9.963470458984375
1713723964600248991,-0.10546118021011353,-0.055393751710653305,0.02556634694337845,-3.2369606494903564,-4.394556999206543,9.469067573547363
1713723964609248991,-0.06072007119655609,-0.09161274135112762,0.07243797928094864,-0.2717418968677521,-2.8167781829833984,11.622652053833008
1713723964619248991,0.020240023732185364,-0.02876213937997818,0.030892668291926384,2.8155810832977295,-0.46327802538871765,12.720393180847168
1713723964628248991,-0.011717909015715122,0.07669904083013535,0.014913702383637428,1.8602946996688843,-1.6795324087142944,12.18528938293457
1713723964638248991,0.11185276508331299,0.06711165606975555,-0.019174760207533836,-2.252943754196167,-5.056553840637207,10.799046516418457
1713723964648248991,0.14274543523788452,0.015978965908288956,0.07563377171754837,-2.6443958282470703,-4.623203277587891,9.204507827758789
1713723964657248991,0.2972087860107422,-0.024501081556081772,0.04261057823896408,0.3208230137825012,-0.16879121959209442,8.269572257995605
1713723964667248991,0.222640261054039,0.009587380103766918,0.04687163606286049,0.5793967843055725,2.876633405685425,7.922413349151611
1713723964677248991,0.11078750342130661,0.03834952041506767,0.02130528911948204,0.24660277366638184,5.017049789428711,8.810662269592285
1713723964686248991,-0.08202536404132843,0.04367584362626076,0.055393751710653305,-0.25019407272338867,5.34625244140625,9.169792175292969
1713723964696248991,-0.24181503057479858,0.030892668291926384,0.03515372797846794,-0.4453215003013611,3.9396588802337646,9.747992515563965
1713723964705248991,-0.33236250281333923,0.009587380103766918,0.07030745595693588,-0.3663128614425659,1.1492167711257935,10.056843757629395
1713723964715248991,-0.1949433982372284,-0.07456851005554199,0.027696875855326653,-2.783259391784668,-4.20541524887085,9.445125579833984
1713723964725248991,-0.13741911947727203,-0.1299622654914856,0.14061491191387177,-2.0829553604125977,-6.168660640716553,9.473855972290039
1713723964734248991,0.009587380103766918,-0.07989483326673508,0.08309062570333481,2.8107926845550537,-2.4229321479797363,12.2774658203125
1713723964744248991,0.011717909015715122,0.06604639440774918,0.07030745595693588,3.934870481491089,-0.416591078042984,13.473369598388672
1713723964753248991,0.07776430249214172,0.12783172726631165,-0.008522115647792816,0.5518634915351868,-2.80361008644104,12.49055004119873
1713723964763248991,0.14487595856189728,0.06391586363315582,0.05752427875995636,-3.4560301303863525,-5.722141742706299,9.459490776062012
1713723964773248991,0.21198762953281403,-0.00532632227987051,0.08202536404132843,-2.1368250846862793,-2.5318682193756104,8.811859130859375
1713723964782248991,0.28975191712379456,-0.02876213937997818,0.055393751710653305,0.568622887134552,1.7489643096923828,8.683769226074219
1713723964791248991,0.19600865244865417,0.001065264455974102,0.05965480953454971,0.712274968624115,3.307589530944824,7.717709064483643
1713723964801248991,0.03195793181657791,0.026631610468029976,0.047936901450157166,0.3315969407558441,4.6722846031188965,9.080009460449219
1713723964811248991,-0.13635385036468506,0.03515372797846794,0.07030745595693588,-0.07900865375995636,4.437652587890625,9.685742378234863
1713723964820248991,-0.28122982382774353,0.03302319720387459,0.07563377171754837,-0.06464344263076782,2.6647465229034424,9.775525093078613
1713723964830248991,-0.3004045784473419,0.02556634694337845,0.07137271761894226,-0.5985504388809204,-0.2298433631658554,10.83974838256836
1713723964839248991,-0.13741911947727203,-0.06604639440774918,0.04261057823896408,-3.0861258506774902,-5.386953830718994,9.543288230895996
1713723964849248991,-0.09693906456232071,-0.1161138266324997,0.14168016612529755,-1.0319008827209473,-5.407304286956787,10.211270332336426
1713723964859248991,0.05752427875995636,-0.06924218684434891,0.04367584362626076,3.4536359310150146,-1.601720929145813,12.326547622680664
1713723964868248991,-0.001065264455974102,0.047936901450157166,0.044741105288267136,3.8331167697906494,-0.8056488633155823,12.18648624420166
1713723964878248991,0.08309062570333481,0.10013485699892044,-0.04687163606286049,1.1049240827560425,-2.8993782997131348,11.5436429977417
1713723964888248991,0.15020228922367096,0.07989483326673508,0.007456851191818714,-1.8303672075271606,-4.64594841003418,8.44554615020752
1713723964897248991,0.25353294610977173,0.022370552644133568,0.02130528911948204,-0.8810662031173706,-1.358709454536438,7.785943984985352
1713723964907248991,0.25353294610977173,0.004261057823896408,-0.015978965908288956,0.3363853394985199,2.6144680976867676,8.876502990722656
1713723964916248991,0.13741911947727203,0.01065264455974102,-0.004261057823896408,0.16400282084941864,4.423287391662598,9.051279067993164
1713723964926248991,-0.07989483326673508,0.007456851191818714,-0.012783173471689224,0.16639702022075653,4.885368347167969,10.289081573486328
1713723964936248991,-0.24181503057479858,0.009587380103766918,-0.01065264455974102,0.2717418968677521,3.3399112224578857,10.453083992004395
1713723964945248991,-0.30360037088394165,0.011717909015715122,0.001065264455974102,-0.22026655077934265,-0.02274491637945175,10.217255592346191
1713723964955248991,-0.1299622654914856,-0.06178533658385277,-0.04048004746437073,-2.867056369781494,-5.531803131103516,8.950722694396973
1713723964964248991,-0.07137271761894226,-0.10333064943552017,0.0788295716047287,-1.315613865852356,-5.955576419830322,9.433154106140137
1713723964974248991,0.09693906456232071,-0.05965480953454971,-0.020240023732185364,3.025073766708374,-1.4748282432556152,11.554417610168457
1713723964984248991,0.04367584362626076,0.05965480953454971,-0.001065264455974102,3.466804027557373,0.39145198464393616,12.641385078430176
1713723964993248991,0.015978965908288956,0.1438107043504715,-0.05965480953454971,1.8291701078414917,0.017956512048840523,12.9119291305542
1713723965003248991,0.10972223430871964,0.12357067316770554,-0.044741105288267136,-2.491166830062866,-3.448847532272339,9.17817211151123
1713723965012248991,0.11824434995651245,0.05006742849946022,0.02130528911948204,-3.3889925479888916,-3.4308910369873047,7.513004779815674
1713723965022248991,0.23009711503982544,-0.020240023732185364,0.008522115647792816,-1.0486602783203125,0.44412440061569214,7.857769966125488
1713723965032248991,0.13209278881549835,-0.03195793181657791,0.02876213937997818,-0.3196259140968323,3.3279402256011963,9.404423713684082
1713723965041248991,0.008522115647792816,-0.019174760207533836,-0.003195793367922306,0.3663128614425659,4.552574634552002,10.72841739654541
1713723965051248991,-0.1576591432094574,0.013848437927663326,0.02556634694337845,0.6607996821403503,3.2764649391174316,9.68694019317627
1713723965060248991,-0.2545982003211975,0.03515372797846794,-0.009587380103766918,0.5243301391601562,1.0498573780059814,9.768342971801758
1713723965070248991,-0.12463594228029251,-0.012783173471689224,-0.008522115647792816,-2.1942858695983887,-3.507505416870117,8.955511093139648
1713723965080248991,-0.0788295716047287,-0.07243797928094864,0.06072007119655609,-2.388216257095337,-4.855441093444824,9.287108421325684
1713723965089248991,0.0649811327457428,-0.07350324839353561,0.03302319720387459,1.2306196689605713,-1.357512354850769,10.806229591369629
1713723965099248991,0.020240023732185364,0.012783173471689224,0.02876213937997818,2.6396074295043945,0.7924807667732239,12.465411186218262
1713723965108248991,-0.030892668291926384,0.08628641813993454,-0.01810949482023716,2.3116016387939453,0.477643221616745,12.61624526977539
1713723965118248991,0.023435818031430244,0.07776430249214172,-0.014913702383637428,-1.0211269855499268,-3.421314239501953,10.315418243408203
1713723965127248991,0.08096009492874146,0.011717909015715122,0.013848437927663326,-3.141192674636841,-5.47194766998291,8.432377815246582
1713723965137248991,0.20666129887104034,-0.034088462591171265,0.049002163112163544,-0.9026139974594116,-1.6172832250595093,8.523358345031738
1713723965147248991,0.2183792144060135,-0.024501081556081772,-0.006391586735844612,0.9074024558067322,2.491166830062866,9.668983459472656
1713723965156248991,0.1257012039422989,0.022370552644133568,0.0,1.035492181777954,3.8103718757629395,9.495404243469238
1713723965166248991,-0.0649811327457428,0.052197955548763275,-0.00532632227987051,0.5327098965644836,3.8510732650756836,9.986215591430664
1713723965176248991,-0.1992044448852539,0.05432848632335663,-0.013848437927663326,-0.019153613597154617,2.603694200515747,10.077195167541504
1713723965185248991,-0.2364886999130249,0.03941478580236435,0.022370552644133568,-1.1851298809051514,-0.15562310814857483,10.58117389678955
1713723965195248991,-0.09906959533691406,-0.04367584362626076,-0.023435818031430244,-3.356670618057251,-4.381389141082764,9.115922927856445
1713723965204248991,-0.06604639440774918,-0.09693906456232071,0.09906959533691406,-1.279700756072998,-4.004302501678467,9.135076522827148
1713723965214248991,0.05432848632335663,-0.07030745595693588,-0.002130528911948204,2.360682725906372,-0.6009446382522583,11.117475509643555
1713723965223248991,-0.011717909015715122,0.02876213937997818,0.02876213937997818,2.7269957065582275,0.2214636504650116,11.696871757507324
1713723965233248991,-0.04580637067556381,0.08309062570333481,-0.02876213937997818,1.501164436340332,-0.447715699672699,13.221979141235352
1713723965243248991,0.0649811327457428,0.058589544147253036,-0.027696875855326653,-2.1787235736846924,-4.210203647613525,10.33098030090332
1713723965253630077,0.09374327212572098,0.023435818031430244,0.06285060197114944,-2.0242974758148193,-4.106055736541748,8.057685852050781
1713723965263630077,0.25246766209602356,-0.004261057823896408,-0.011717909015715122,0.6476315259933472,-0.25258827209472656,7.678204536437988
1713723965273630077,0.1619201898574829,0.027696875855326653,0.044741105288267136,0.6979097723960876,2.6408045291900635,8.811859130859375
1713723965282630077,0.044741105288267136,0.04580637067556381,-0.02876213937997818,0.37828385829925537,4.620809078216553,10.800243377685547
1713723965292630077,-0.12357067316770554,0.05432848632335663,0.02556634694337845,-0.20949263870716095,3.823539972305298,9.861716270446777
1713723965301630077,-0.24714134633541107,0.03302319720387459,-0.011717909015715122,-0.5997475385665894,1.824381709098816,9.32541561126709
1713723965311630077,-0.16937704384326935,-0.03302319720387459,0.00532632227987051,-2.321178436279297,-2.3127987384796143,8.950722694396973
1713723965321630077,-0.10546118021011353,-0.09906959533691406,0.049002163112163544,-2.49834942817688,-4.520252704620361,9.132681846618652
1713723965330630077,0.003195793367922306,-0.10013485699892044,0.03834952041506767,0.8283937573432922,-1.8267759084701538,10.9678373336792
1713723965340630077,0.014913702383637428,-0.013848437927663326,0.015978965908288956,2.7700912952423096,0.15921440720558167,12.374431610107422
1713723965350630077,-0.02876213937997818,0.06817692518234253,-0.027696875855326653,2.4229321479797363,-0.4429273009300232,12.570755958557129
1713723965359630077,0.04580637067556381,0.06817692518234253,-0.02876213937997818,-0.6943184733390808,-3.8127660751342773,10.766724586486816
1713723965368630077,0.08202536404132843,0.03302319720387459,0.027696875855326653,-2.1487960815429688,-4.914098739624023,8.656235694885254
1713723965378630077,0.21411815285682678,0.02130528911948204,0.03515372797846794,-0.21787235140800476,-1.1982979774475098,8.452729225158691
1713723965387630077,0.19813919067382812,0.03515372797846794,0.002130528911948204,0.3016694188117981,2.3331494331359863,9.205705642700195
1713723965398630077,0.10759171098470688,0.04048004746437073,0.00532632227987051,-0.15801730751991272,3.930082082748413,9.53969669342041
1713723965407630077,-0.08202536404132843,0.02556634694337845,0.012783173471689224,-0.5015852451324463,3.9444472789764404,10.041281700134277
1713723965416630077,-0.22477079927921295,-0.008522115647792816,-0.004261057823896408,-0.42856210470199585,2.5450363159179688,10.465055465698242
1713723965426630077,-0.2322276532649994,-0.030892668291926384,0.027696875855326653,-0.8068459630012512,-0.6177040338516235,9.982624053955078
1713723965436630077,-0.11291802674531937,-0.06391586363315582,0.002130528911948204,-1.7178397178649902,-4.4292731285095215,8.753201484680176
1713723965445630077,-0.03834952041506767,-0.044741105288267136,0.07350324839353561,0.386663556098938,-3.8091747760772705,9.400833129882812
1713723965455630077,0.06072007119655609,0.011717909015715122,-0.013848437927663326,2.715024709701538,-0.8355763554573059,11.364078521728516
1713723965464630077,0.004261057823896408,0.08735168725252151,0.00532632227987051,1.9393033981323242,-0.07182604819536209,11.967416763305664
1713723965474630077,0.014913702383637428,0.06817692518234253,-0.058589544147253036,-0.993593692779541,-1.723825216293335,12.228384971618652
1713723965484630077,0.05752427875995636,-0.008522115647792816,0.012783173471689224,-3.051409959793091,-4.01268196105957,9.99459457397461
1713723965493630077,0.12250541150569916,-0.04687163606286049,0.03941478580236435,-0.6320692300796509,-1.9776105880737305,8.993818283081055
1713723965503630077,0.2087918221950531,-0.008522115647792816,-0.014913702383637428,1.5322890281677246,0.8379705548286438,8.652645111083984
1713723965513630077,0.15978966653347015,0.049002163112163544,-0.004261057823896408,1.1073182821273804,2.102108955383301,7.7883381843566895
1713723965522630077,0.02556634694337845,0.07563377171754837,-0.013848437927663326,0.152031809091568,3.7421371936798096,9.461884498596191
1713723965531630077,-0.12463594228029251,0.06285060197114944,-0.017044231295585632,-0.7757213115692139,3.8151602745056152,10.573991775512695
1713723965541630077,-0.2556634545326233,0.022370552644133568,0.01065264455974102,-1.1324573755264282,1.9692308902740479,10.378864288330078
1713723965551630077,-0.1896170675754547,-0.06178533658385277,-0.00532632227987051,-2.428917646408081,-2.585737705230713,9.570820808410645
1713723965560630077,-0.11824434995651245,-0.11398329585790634,0.06924218684434891,-2.0817582607269287,-5.153519153594971,8.786720275878906
1713723965570630077,0.015978965908288956,-0.08522115647792816,0.04580637067556381,1.5418658256530762,-2.293645143508911,10.109516143798828
1713723965580630077,0.047936901450157166,0.02130528911948204,0.00532632227987051,3.1759085655212402,0.3196259140968323,11.868057250976562
1713723965589630077,0.0,0.10972223430871964,-0.02556634694337845,2.182314872741699,0.41778817772865295,11.828553199768066
1713723965599630077,-0.01065264455974102,0.09800432622432709,-0.04048004746437073,-1.0450689792633057,-2.031480073928833,11.744756698608398
1713723965608630077,0.04580637067556381,-0.003195793367922306,0.001065264455974102,-3.442862033843994,-4.711788654327393,10.162188529968262
1713723965618630077,0.11078750342130661,-0.047936901450157166,0.06178533658385277,-0.8571242094039917,-2.5330653190612793,9.515754699707031
1713723965628630077,0.21518342196941376,-0.01065264455974102,-0.013848437927663326,1.5885528326034546,0.5374982953071594,8.883685111999512
1713723965637630077,0.16618125140666962,0.047936901450157166,0.004261057823896408,1.3108254671096802,1.6747440099716187,7.553706169128418
1713723965647630077,0.037284255027770996,0.08202536404132843,-0.008522115647792816,0.48961424827575684,3.531447410583496,9.461884498596191
1713723965657630077,-0.09587380290031433,0.08202536404132843,-0.027696875855326653,-0.5710170865058899,3.8798038959503174,10.305841445922852
1713723965666630077,-0.23009711503982544,0.04580637067556381,0.007456851191818714,-1.2904746532440186,2.3032219409942627,9.866504669189453
1713723965675630077,-0.2183792144060135,-0.03302319720387459,-0.013848437927663326,-2.604891300201416,-1.0965443849563599,9.81143856048584
1713723965685630077,-0.13528858125209808,-0.11824434995651245,0.04687163606286049,-3.0142998695373535,-4.528632640838623,9.567230224609375
1713723965695630077,-0.055393751710653305,-0.11504855751991272,0.06072007119655609,0.5614402890205383,-2.981978178024292,10.903194427490234
1713723965704630077,0.04580637067556381,-0.02556634694337845,-0.003195793367922306,3.2992098331451416,-0.6607996821403503,11.12465763092041
1713723965714630077,0.003195793367922306,0.08096009492874146,-0.007456851191818714,2.6815059185028076,-0.690727174282074,10.721235275268555
1713723965723630077,0.019174760207533836,0.10759171098470688,-0.05326322093605995,0.03232172131538391,-1.625662922859192,11.688492774963379
1713723965733630077,0.07030745595693588,0.04687163606286049,-0.008522115647792816,-2.5438392162323,-3.488351821899414,10.36449909210205
1713723965743630077,0.09906959533691406,-0.001065264455974102,0.04367584362626076,-1.2713210582733154,-1.8602946996688843,9.696516990661621
1713723965753630077,0.16511598229408264,-0.003195793367922306,-0.015978965908288956,0.38546645641326904,0.6045359373092651,8.972270965576172
1713723965762630077,0.10865697264671326,0.014913702383637428,0.01065264455974102,0.2059013396501541,1.4484920501708984,8.146270751953125
1713723965772630077,0.012783173471689224,0.019174760207533836,-0.013848437927663326,-0.1496376097202301,2.646790027618408,9.409212112426758
1713723965781630077,-0.08522115647792816,0.015978965908288956,-0.014913702383637428,-0.5482721924781799,2.7222073078155518,9.81263542175293
1713723965791630077,-0.17363810539245605,-0.001065264455974102,-0.003195793367922306,-0.7314286231994629,1.5957354307174683,9.647435188293457
1713723965800630077,-0.18429075181484222,-0.026631610468029976,-0.008522115647792816,-1.0797849893569946,-0.23822306096553802,10.02811336517334
1713723965810630077,-0.11398329585790634,-0.06924218684434891,0.002130528911948204,-1.932120680809021,-2.8838160037994385,9.849745750427246
1713723965819630077,-0.08415588736534119,-0.08628641813993454,0.03302319720387459,-0.5650315880775452,-3.021482467651367,10.84094524383545
1713723965829630077,-0.023435818031430244,-0.05432848632335663,0.007456851191818714,2.051830768585205,-1.4724340438842773,12.040440559387207
1713723965839630077,0.00532632227987051,-0.009587380103766918,-0.02556634694337845,1.766920804977417,-2.493561029434204,12.138602256774902
1713723965848630077,0.06924218684434891,0.011717909015715122,-0.007456851191818714,0.23104046285152435,-4.2293572425842285,11.207258224487305
1713723965858630077,0.13102751970291138,0.047936901450157166,0.017044231295585632,0.8655039072036743,-2.9520506858825684,9.871293067932129
1713723965868630077,0.23009711503982544,0.1022653877735138,-0.027696875855326653,1.3180080652236938,-0.5554547905921936,8.497021675109863
1713723965877630077,0.21092236042022705,0.12250541150569916,-0.019174760207533836,-0.333991140127182,1.1097124814987183,7.678204536437988
1713723965887630077,0.1257012039422989,0.07563377171754837,-0.017044231295585632,-1.8938134908676147,3.1016881465911865,8.883685111999512
1713723965896630077,-0.006391586735844612,0.0,-0.00532632227987051,-2.450465440750122,3.9695863723754883,9.68813705444336
1713723965906630077,-0.15552860498428345,-0.06817692518234253,0.003195793367922306,-1.8854337930679321,3.226186752319336,10.020931243896484
1713723965915630077,-0.23861923813819885,-0.09374327212572098,0.013848437927663326,-0.5817909836769104,1.40180504322052,9.640253067016602
1713723965926630077,-0.222640261054039,-0.08096009492874146,0.012783173471689224,0.19153612852096558,-1.0259153842926025,9.490615844726562
1713723965935630077,-0.11930961906909943,-0.06817692518234253,0.002130528911948204,-0.25258827209472656,-3.642777919769287,9.653421401977539
1713723965944630077,-0.05326322093605995,-0.03834952041506767,0.019174760207533836,0.44651859998703003,-3.7684733867645264,10.994174003601074
1713723965954630077,0.009587380103766918,0.003195793367922306,-0.007456851191818714,1.7369933128356934,-2.007538080215454,12.904747009277344
1713723965963630077,0.052197955548763275,0.019174760207533836,-0.03302319720387459,0.5781996846199036,-2.718616008758545,12.574347496032715
1713723965974630077,0.08522115647792816,0.008522115647792816,0.009587380103766918,-0.45010989904403687,-3.980360269546509,10.775104522705078
1713723965983630077,0.1438107043504715,0.03302319720387459,0.023435818031430244,0.9445125460624695,-2.2385785579681396,9.716867446899414
1713723965992630077,0.22583605349063873,0.09800432622432709,-0.019174760207533836,1.3239935636520386,-0.08858545869588852,8.531737327575684
1713723966002630077,0.2130528837442398,0.11824434995651245,-0.015978965908288956,-0.4920084476470947,1.282094955444336,7.225700378417969
1713723966012630077,0.12144014239311218,0.0649811327457428,-0.01065264455974102,-2.1487960815429688,3.248931646347046,8.197746276855469
1713723966021630077,-0.014913702383637428,-0.017044231295585632,-0.002130528911948204,-2.5953145027160645,4.3825860023498535,9.440337181091309
1713723966031630077,-0.16831177473068237,-0.08309062570333481,0.008522115647792816,-1.8052279949188232,3.7457284927368164,9.805453300476074
1713723966040630077,-0.2684466242790222,-0.10546118021011353,0.02556634694337845,-0.20111294090747833,1.84233820438385,9.639056205749512
1713723966050630077,-0.2780340313911438,-0.0788295716047287,0.024501081556081772,0.8068459630012512,-0.7422025203704834,10.44470500946045
1713723966060630077,-0.12783172726631165,-0.07030745595693588,-0.01065264455974102,-0.6751648783683777,-4.929661273956299,10.888829231262207
1713723966069630077,-0.04367584362626076,-0.06604639440774918,0.044741105288267136,-0.6548141837120056,-6.2620344161987305,11.128249168395996
1713723966078630077,0.05006742849946022,-0.029827404767274857,0.017044231295585632,2.3343465328216553,-2.9077579975128174,12.658143997192383
1713723966088630077,0.08415588736534119,0.04261057823896408,-0.02130528911948204,2.9245173931121826,-1.3120225667953491,12.652158737182617
1713723966098630077,0.13635385036468506,0.08948221057653427,-0.03941478580236435,0.5961562395095825,-2.7006595134735107,10.334571838378906
1713723966107630077,0.15446333587169647,0.09906959533691406,0.01065264455974102,-0.5051765441894531,-2.4205379486083984,8.640673637390137
1713723966117630077,0.222640261054039,0.08628641813993454,-0.026631610468029976,-0.5614402890205383,-0.12928688526153564,8.112751960754395
1713723966127630077,0.1810949593782425,0.055393751710653305,0.003195793367922306,-1.5406687259674072,1.9225438833236694,8.26119327545166
1713723966136630077,0.10333064943552017,-0.01065264455974102,-0.008522115647792816,-2.075772762298584,3.42490553855896,8.615534782409668
1713723966146630077,-0.04048004746437073,-0.06072007119655609,0.02130528911948204,-1.6196774244308472,3.892971992492676,9.121908187866211
1713723966155630077,-0.17044231295585632,-0.08415588736534119,0.00532632227987051,-0.4058171808719635,3.1914708614349365,9.900023460388184
1713723966165630077,-0.24501082301139832,-0.05965480953454971,0.026631610468029976,0.8750807046890259,1.2509703636169434,9.48462963104248
1713723966175630077,-0.22903186082839966,-0.02556634694337845,0.0,0.4058171808719635,-1.4867992401123047,10.74876880645752
1713723966184630077,-0.07989483326673508,-0.055393751710653305,-0.014913702383637428,-2.027888774871826,-5.531803131103516,11.587936401367188
1713723966194630077,-0.01065264455974102,-0.07669904083013535,0.06711165606975555,-0.7852981686592102,-5.711368083953857,11.737573623657227
1713723966203630077,0.09800432622432709,-0.04261057823896408,-0.002130528911948204,2.7736825942993164,-2.3535001277923584,11.963825225830078
1713723966213630077,0.08948221057653427,0.058589544147253036,0.003195793367922306,3.1866824626922607,-1.0881646871566772,10.934318542480469
1713723966222630077,0.12889699637889862,0.1257012039422989,-0.03834952041506767,1.2713210582733154,-1.3192051649093628,9.720458984375
1713723966233630077,0.16298545897006989,0.14061491191387177,-0.009587380103766918,-1.1959037780761719,-1.3239935636520386,8.347384452819824
1713723966242630077,0.18216021358966827,0.08522115647792816,-0.006391586735844612,-2.3499088287353516,0.447715699672699,8.251616477966309
1713723966251630077,0.14061491191387177,-0.012783173471689224,0.015978965908288956,-2.472013235092163,2.49834942817688,8.57004451751709
1713723966261630077,0.023435818031430244,-0.0884169489145279,0.022370552644133568,-1.8638859987258911,3.578134298324585,9.249998092651367
1713723966271630077,-0.1161138266324997,-0.11291802674531937,0.024501081556081772,-0.37469255924224854,3.4296939373016357,9.99459457397461
1713723966280630077,-0.222640261054039,-0.08628641813993454,0.017044231295585632,1.2868833541870117,1.844732403755188,9.897629737854004
1713723966290630077,-0.25246766209602356,-0.014913702383637428,0.01810949482023716,2.1080944538116455,-0.39384618401527405,10.45667552947998
1713723966299630077,-0.09374327212572098,-0.002130528911948204,-0.03941478580236435,-0.6739677786827087,-4.683058261871338,9.853337287902832
1713723966309630077,-0.02130528911948204,-0.02876213937997818,0.03941478580236435,-2.227804660797119,-6.224924087524414,10.253169059753418
1713723966319630077,0.08628641813993454,-0.03515372797846794,0.019174760207533836,0.7338228225708008,-2.1475989818573,12.372036933898926
1713723966328630077,0.08628641813993454,0.011717909015715122,-0.012783173471689224,2.24935245513916,0.42377370595932007,12.175712585449219
1713723966338630077,0.05965480953454971,0.06391586363315582,-0.024501081556081772,1.6268600225448608,-0.09696516394615173,9.929951667785645
1713723966347630077,0.044741105288267136,0.0884169489145279,-0.00532632227987051,0.3100491166114807,-0.8990226984024048,8.668207168579102
1713723966357630077,0.07563377171754837,0.07669904083013535,-0.019174760207533836,-1.1552022695541382,-0.8738836050033569,8.678980827331543
1713723966367630077,0.09054747968912125,0.041545312851667404,0.020240023732185364,-1.8722656965255737,0.33279404044151306,8.769960403442383
1713723966376630077,0.055393751710653305,-0.01810949482023716,-0.003195793367922306,-1.9393033981323242,1.7106571197509766,9.39484691619873
1713723966385630077,-0.026631610468029976,-0.06711165606975555,0.020240023732185364,-1.4173673391342163,2.1092915534973145,9.99220085144043
1713723966395630077,-0.1203748807311058,-0.09161274135112762,0.012783173471689224,-0.243011474609375,1.5729905366897583,10.474632263183594
1713723966405630077,-0.1619201898574829,-0.07243797928094864,0.013848437927663326,1.0773907899856567,0.16519992053508759,9.897629737854004
1713723966415630077,-0.11824434995651245,-0.029827404767274857,0.007456851191818714,1.0678139925003052,-1.988384485244751,9.5624418258667
1713723966424630077,-0.024501081556081772,-0.001065264455974102,-0.012783173471689224,0.020350713282823563,-3.800795078277588,10.06043529510498
1713723966434630077,0.034088462591171265,0.024501081556081772,0.015978965908288956,0.2717418968677521,-2.5450363159179688,11.139022827148438
1713723966443630077,0.07030745595693588,0.03515372797846794,-0.019174760207533836,0.6452373266220093,-0.3711012601852417,11.465831756591797
1713723966453630077,0.029827404767274857,0.027696875855326653,-0.020240023732185364,-0.35673603415489197,-0.29807811975479126,11.093533515930176
1713723966462630077,0.03302319720387459,-0.015978965908288956,-0.004261057823896408,-1.3120225667953491,-1.5191209316253662,10.328585624694824
1713723966472630077,0.03515372797846794,-0.03621898964047432,0.030892668291926384,-0.4668693244457245,-1.4736311435699463,9.458293914794922
1713723966482630077,0.09054747968912125,-0.012783173471689224,0.003195793367922306,0.773327112197876,-0.31603461503982544,8.880093574523926
1713723966491630077,0.08202536404132843,0.029827404767274857,0.0,0.6488286256790161,0.43095630407333374,8.608351707458496
1713723966501630077,0.03515372797846794,0.04261057823896408,-0.003195793367922306,-0.014365210197865963,1.4329296350479126,9.533711433410645
1713723966510630077,-0.037284255027770996,0.02876213937997818,-0.007456851191818714,-0.6763619780540466,1.7609353065490723,10.20887565612793
1713723966520630077,-0.10439591109752655,0.0,0.00532632227987051,-0.9516951441764832,1.092953085899353,10.211270332336426
1713723966530630077,-0.09800432622432709,-0.04580637067556381,0.008522115647792816,-1.091755986213684,-0.8032546639442444,9.671377182006836
1713723966539630077,-0.07456851005554199,-0.06391586363315582,0.03195793181657791,-0.6356605291366577,-2.0398597717285156,9.206902503967285
1713723966549630077,-0.02876213937997818,-0.03621898964047432,0.02130528911948204,0.7266402244567871,-1.1982979774475098,10.053253173828125
1713723966558630077,-0.011717909015715122,0.013848437927663326,-0.006391586735844612,1.2497732639312744,-0.4644751250743866,11.464634895324707
1713723966568630077,0.01065264455974102,0.006391586735844612,-0.026631610468029976,-0.34835633635520935,-1.8160020112991333,12.00452709197998
1713723966578630077,0.024501081556081772,-0.03941478580236435,0.007456851191818714,-1.4736311435699463,-3.4799721240997314,11.285069465637207
1713723966588630077,0.05965480953454971,-0.049002163112163544,0.03195793181657791,0.5171475410461426,-2.470816135406494,10.45787239074707
1713723966597630077,0.13848437368869781,0.011717909015715122,-0.001065264455974102,2.3726539611816406,-0.9792284965515137,9.198522567749023
1713723966606630077,0.15659387409687042,0.09800432622432709,-0.022370552644133568,1.6903064250946045,-0.1149216815829277,8.054094314575195
1713723966616630077,0.13102751970291138,0.12144014239311218,-0.02556634694337845,-0.1280897855758667,1.4425065517425537,8.53532886505127
1713723966626630077,0.05432848632335663,0.07456851005554199,-0.020240023732185364,-1.8171991109848022,2.7234044075012207,9.373299598693848
1713723966635630077,-0.06178533658385277,-0.002130528911948204,-0.001065264455974102,-2.4384944438934326,2.892195701599121,10.035296440124512
1713723966645630077,-0.16085493564605713,-0.07243797928094864,0.012783173471689224,-1.7262194156646729,1.8040308952331543,10.02811336517334
1713723966654630077,-0.19707392156124115,-0.09906959533691406,0.02876213937997818,-0.3495534360408783,-0.10175357013940811,10.029311180114746
1713723966664630077,-0.11504855751991272,-0.09054747968912125,0.007456851191818714,0.08978256583213806,-2.8634650707244873,9.660603523254395
1713723966674630077,-0.052197955548763275,-0.047936901450157166,0.030892668291926384,0.790086567401886,-3.7397429943084717,10.098742485046387
1713723966683630077,0.022370552644133568,0.019174760207533836,0.002130528911948204,2.2457611560821533,-1.8734627962112427,11.579556465148926
1713723966693630077,0.052197955548763275,0.06924218684434891,-0.024501081556081772,1.4891934394836426,-1.335964560508728,12.192471504211426
1713723966702630077,0.08628641813993454,0.05432848632335663,-0.03195793181657791,-0.8870517015457153,-2.845508575439453,11.309011459350586
1713723966712630077,0.09480853378772736,0.024501081556081772,0.02876213937997818,-0.8655039072036743,-2.474407434463501,9.986215591430664
1713723966722630077,0.16405072808265686,0.023435818031430244,-0.009587380103766918,0.36152446269989014,-0.5590460896492004,8.74721622467041
1713723966731630077,0.15020228922367096,0.0511326938867569,-0.014913702383637428,-0.011971008032560349,0.8032546639442444,8.186972618103027
1713723966741630077,0.1065264418721199,0.03621898964047432,-0.022370552644133568,-0.894234299659729,2.1942858695983887,8.611943244934082
1713723966750630077,0.012783173471689224,-0.001065264455974102,-0.012783173471689224,-1.3838485479354858,2.9700071811676025,8.990227699279785
1713723966760630077,-0.1022653877735138,-0.04048004746437073,-0.013848437927663326,-1.1755529642105103,2.8179752826690674,9.649829864501953
1713723966770630077,-0.19387812912464142,-0.0649811327457428,0.0,-0.3998316824436188,1.723825216293335,10.077195167541504
1713723966779630077,-0.21092236042022705,-0.055393751710653305,0.011717909015715122,0.34356793761253357,-0.18076223134994507,10.33098030090332
1713723966788630077,-0.11504855751991272,-0.052197955548763275,-0.01065264455974102,-0.4572925269603729,-3.420117139816284,9.999382972717285
1713723966798630077,-0.052197955548763275,-0.05432848632335663,0.02876213937997818,-0.7936778664588928,-4.808753967285156,10.898406028747559
1713723966808630077,0.014913702383637428,-0.026631610468029976,0.020240023732185364,1.302445650100708,-2.5749638080596924,12.607866287231445
1713723966818630077,0.06711165606975555,0.019174760207533836,-0.022370552644133568,1.9009960889816284,-1.6160861253738403,12.391190528869629
1713723966827630077,0.10439591109752655,0.04367584362626076,-0.02130528911948204,0.264559268951416,-2.8814218044281006,10.413579940795898
1713723966837630077,0.13209278881549835,0.05645901337265968,0.01065264455974102,0.08140285313129425,-2.0410568714141846,9.05367374420166
1713723966846630077,0.19813919067382812,0.07137271761894226,-0.027696875855326653,0.19393032789230347,0.011971008032560349,8.245630264282227
1713723966856630077,0.16085493564605713,0.0649811327457428,-0.01065264455974102,-0.9648632407188416,1.546654224395752,8.097189903259277
1713723966865630077,0.07989483326673508,0.011717909015715122,-0.014913702383637428,-1.820790410041809,3.070563554763794,9.030928611755371
1713723966875630077,-0.052197955548763275,-0.0511326938867569,0.003195793367922306,-1.8171991109848022,3.513490915298462,9.668983459472656
1713723966885630077,-0.17363810539245605,-0.09587380290031433,0.00532632227987051,-0.8487445116043091,2.5737667083740234,9.979032516479492
1713723966894630077,-0.22903186082839966,-0.09161274135112762,0.01810949482023716,0.6476315259933472,0.6763619780540466,9.39245319366455
1713723966904630077,-0.19707392156124115,-0.049002163112163544,0.011717909015715122,1.0211269855499268,-1.5179238319396973,9.81263542175293
1713723966913630077,-0.07563377171754837,-0.024501081556081772,-0.013848437927663326,-0.31603461503982544,-4.124012470245361,10.57040023803711
1713723966923630077,-0.01065264455974102,-0.014913702383637428,0.02556634694337845,-0.23343466222286224,-4.109647274017334,11.505335807800293
1713723966933630077,0.03834952041506767,-0.003195793367922306,-0.003195793367922306,1.1994950771331787,-1.8291701078414917,12.828132629394531
1713723966943630077,0.06817692518234253,0.002130528911948204,-0.02556634694337845,0.5961562395095825,-2.298433542251587,12.00333023071289
1713723966952630077,0.09054747968912125,0.001065264455974102,0.013848437927663326,-0.0802057534456253,-3.3913867473602295,10.053253173828125
1713723966961630077,0.15552860498428345,0.03621898964047432,0.00532632227987051,0.8595184087753296,-1.7322049140930176,9.091980934143066
1713723966971630077,0.21944446861743927,0.08628641813993454,-0.023435818031430244,0.6464344263076782,0.32202011346817017,8.100781440734863
1713723966981630077,0.19387812912464142,0.07669904083013535,-0.013848437927663326,-0.9612719416618347,1.8854337930679321,7.495048522949219
1713723966990630077,0.08522115647792816,0.020240023732185364,-0.003195793367922306,-2.074575662612915,3.7205893993377686,8.646658897399902
1713723967000630077,-0.07243797928094864,-0.049002163112163544,0.004261057823896408,-2.053027868270874,4.462791919708252,9.955090522766113
1713723967009630077,-0.222640261054039,-0.10013485699892044,0.020240023732185364,-0.93254154920578,3.2154128551483154,10.256759643554688
1713723967019630077,-0.29401299357414246,-0.09587380290031433,0.026631610468029976,0.651222825050354,0.7661445140838623,9.60912799835205
1713723967029630077,-0.20026971399784088,-0.08202536404132843,0.001065264455974102,0.21667525172233582,-3.3063924312591553,9.838972091674805
1713723967038630077,-0.08309062570333481,-0.08096009492874146,0.02556634694337845,-0.9672574996948242,-6.056133270263672,10.700883865356445
1713723967048630077,0.015978965908288956,-0.04687163606286049,0.03834952041506767,1.1121066808700562,-3.450044631958008,12.15416431427002
1713723967057630077,0.09054747968912125,0.014913702383637428,-0.017044231295585632,2.9101521968841553,-0.8738836050033569,12.032060623168945
1713723967067630077,0.0511326938867569,0.08309062570333481,-0.023435818031430244,1.7848773002624512,-1.0618284940719604,11.255142211914062
1713723967077630077,0.10439591109752655,0.06817692518234253,-0.04048004746437073,-0.851138710975647,-2.5977087020874023,10.183736801147461
1713723967086630077,0.1065264418721199,0.03302319720387459,0.027696875855326653,-1.6819266080856323,-2.191891670227051,9.133879661560059
1713723967096630077,0.18216021358966827,0.003195793367922306,-0.011717909015715122,-0.6572083830833435,0.21428105235099792,8.469488143920898
1713723967105630077,0.13102751970291138,-0.014913702383637428,0.015978965908288956,-0.5650315880775452,1.8303672075271606,8.08043098449707
1713723967115630077,0.04580637067556381,-0.030892668291926384,-0.002130528911948204,-0.4058171808719635,3.247734546661377,9.131484985351562
1713723967125630077,-0.07243797928094864,-0.03302319720387459,0.004261057823896408,-0.04189852997660637,3.3722331523895264,9.348160743713379
1713723967134630077,-0.18748654425144196,-0.029827404767274857,0.001065264455974102,0.35075053572654724,2.3463175296783447,9.635464668273926
1713723967144630077,-0.2407497614622116,-0.007456851191818714,0.001065264455974102,0.6200982332229614,0.628477931022644,9.96825885772705
1713723967153630077,-0.14061491191387177,-0.029827404767274857,-0.020240023732185364,-1.4197615385055542,-3.1483752727508545,10.212467193603516
1713723967164630077,-0.07563377171754837,-0.08415588736534119,0.026631610468029976,-2.740163803100586,-5.430049419403076,11.279084205627441
1713723967173630077,0.00532632227987051,-0.09800432622432709,0.041545312851667404,0.3471592366695404,-2.783259391784668,12.786233901977539
1713723967182630077,0.049002163112163544,-0.049002163112163544,-0.01065264455974102,3.0154969692230225,-0.8762778043746948,11.828553199768066
1713723967192630077,0.047936901450157166,0.04687163606286049,-0.008522115647792816,3.0406360626220703,-1.4305354356765747,9.634267807006836
1713723967202630077,0.09480853378772736,0.10439591109752655,-0.034088462591171265,1.3120225667953491,-2.0805611610412598,8.900444984436035
1713723967211630077,0.12676647305488586,0.11824434995651245,-0.008522115647792816,-0.7589619159698486,-1.1887211799621582,8.914810180664062
1713723967221630077,0.15126754343509674,0.07030745595693588,-0.012783173471689224,-1.965639591217041,0.8702923059463501,8.706514358520508
1713723967230630077,0.08096009492874146,-0.01065264455974102,0.009587380103766918,-2.4432828426361084,2.3535001277923584,8.980650901794434
1713723967240630077,-0.03302319720387459,-0.0884169489145279,0.012783173471689224,-1.702277421951294,3.0561983585357666,9.977835655212402
1713723967250630077,-0.1533980816602707,-0.11717908829450607,0.019174760207533836,-0.1388636976480484,2.4001872539520264,10.597933769226074
1713723967259630077,-0.21092236042022705,-0.08522115647792816,0.009587380103766918,1.3503297567367554,0.5602431893348694,9.853337287902832
1713723967268630077,-0.16618125140666962,-0.03302319720387459,-0.006391586735844612,0.9923965930938721,-2.0638017654418945,9.409212112426758
1713723967278630077,-0.04580637067556381,-0.01810949482023716,-0.012783173471689224,-0.6272808313369751,-4.529829502105713,9.99459457397461
1713723967288630077,0.017044231295585632,-0.001065264455974102,0.019174760207533836,0.08738835901021957,-3.201047658920288,11.469423294067383
1713723967298630077,0.07243797928094864,0.013848437927663326,-0.012783173471689224,1.334767460823059,-0.6631938815116882,12.020089149475098
1713723967307630077,0.024501081556081772,0.02876213937997818,-0.019174760207533836,0.6045359373092651,-0.652419924736023,11.210848808288574
1713723967316630077,0.052197955548763275,0.011717909015715122,-0.012783173471689224,-0.5674257874488831,-1.8914192914962769,9.519346237182617
1713723967326630077,0.06817692518234253,0.001065264455974102,0.022370552644133568,-0.35673603415489197,-1.4652514457702637,8.506598472595215
1713723967336630077,0.13102751970291138,0.002130528911948204,-0.007456851191818714,0.21667525172233582,0.4010287821292877,8.360551834106445
1713723967345630077,0.0788295716047287,0.011717909015715122,0.00532632227987051,-0.1604115068912506,1.7130513191223145,8.773551940917969
1713723967355630077,-0.03302319720387459,0.002130528911948204,-0.001065264455974102,-0.41539397835731506,2.8586766719818115,10.848127365112305
1713723967364630077,-0.15552860498428345,-0.017044231295585632,-0.001065264455974102,-0.304063618183136,2.140416383743286,11.402385711669922
1713723967374630077,-0.1810949593782425,-0.052197955548763275,-0.002130528911948204,-1.238999366760254,-1.161187767982483,11.0300874710083
1713723967383630077,-0.07243797928094864,-0.1065264418721199,0.017044231295585632,-1.9907786846160889,-5.242104530334473,9.14704704284668
1713723967393630077,0.02876213937997818,-0.07456851005554199,0.07030745595693588,1.1073182821273804,-3.9157168865203857,9.129091262817383
1713723967403630077,0.16511598229408264,0.011717909015715122,-0.017044231295585632,3.2968156337738037,-0.40462008118629456,9.834183692932129
1713723967412630077,0.09800432622432709,0.10120011866092682,0.002130528911948204,2.0254945755004883,0.9265560507774353,10.281899452209473
1713723967423630077,-0.03302319720387459,0.1257012039422989,-0.02130528911948204,0.3519476354122162,1.9069815874099731,12.249933242797852
1713723967432630077,-0.06178533658385277,0.05006742849946022,-0.02876213937997818,-2.5989058017730713,-0.19153612852096558,11.316194534301758
1713723967441630077,-0.034088462591171265,-0.07776430249214172,0.03515372797846794,-3.5877110958099365,-3.4392707347869873,8.526948928833008
1713723967451630077,0.041545312851667404,-0.1257012039422989,0.04367584362626076,-0.17238251864910126,-2.2170307636260986,8.163030624389648
1713723967460630077,0.11291802674531937,-0.07350324839353561,0.006391586735844612,2.494758129119873,0.5578489899635315,9.078812599182129
1713723967470630077,0.058589544147253036,0.017044231295585632,-0.009587380103766918,2.4660277366638184,1.6424223184585571,9.667786598205566
1713723967480630077,-0.07030745595693588,0.09374327212572098,-0.019174760207533836,1.5634137392044067,2.2469582557678223,11.565191268920898
1713723967489630077,-0.15020228922367096,0.10013485699892044,-0.03834952041506767,-0.6775590777397156,0.5626373887062073,13.165715217590332
1713723967499630077,-0.034088462591171265,-0.017044231295585632,-0.022370552644133568,-4.264073371887207,-4.760869979858398,9.874884605407715
1713723967508630077,-0.00532632227987051,-0.09054747968912125,0.0788295716047287,-2.580949306488037,-4.977545261383057,7.971494197845459
1713723967518630077,0.18748654425144196,-0.09161274135112762,0.008522115647792816,1.703474521636963,-0.7194576263427734,8.17141056060791
1713723967528630077,0.09054747968912125,0.0,0.029827404767274857,2.345120429992676,1.930923581123352,9.780313491821289
1713723967537630077,-0.008522115647792816,0.06924218684434891,-0.02130528911948204,1.7968482971191406,3.4129345417022705,12.385205268859863
1713723967547630077,-0.15233281254768372,0.09054747968912125,-0.003195793367922306,0.4704606235027313,1.8842366933822632,11.352107048034668
1713723967557630077,-0.08628641813993454,-0.014913702383637428,-0.03941478580236435,-3.1926679611206055,-3.3063924312591553,9.368511199951172
1713723967566630077,-0.04048004746437073,-0.11717908829450607,0.06178533658385277,-3.377021551132202,-5.692214488983154,7.993042469024658
1713723967576630077,0.14274543523788452,-0.12357067316770554,0.02876213937997818,1.338358759880066,-1.8327614068984985,8.845377922058105
1713723967585630077,0.14274543523788452,-0.03515372797846794,-0.001065264455974102,3.1687259674072266,1.6340426206588745,10.465055465698242
1713723967595630077,0.0788295716047287,0.05432848632335663,-0.029827404767274857,2.518700122833252,2.741360902786255,11.05762004852295
1713723967605630077,-0.07989483326673508,0.11930961906909943,-0.002130528911948204,1.37906014919281,2.1715409755706787,11.05402946472168
1713723967614630077,-0.17044231295585632,0.12144014239311218,-0.015978965908288956,-0.5482721924781799,0.31124621629714966,11.768698692321777
1713723967624630077,-0.027696875855326653,0.01810949482023716,-0.007456851191818714,-3.9588124752044678,-4.836287498474121,9.02015495300293
1713723967633630077,0.004261057823896408,-0.05752427875995636,0.08309062570333481,-3.027467966079712,-5.176263809204102,8.090007781982422
1713723967643630077,0.18002969026565552,-0.0788295716047287,0.020240023732185364,0.8738836050033569,-0.545877993106842,8.99621295928955
1713723967652630077,0.07563377171754837,-0.01810949482023716,0.047936901450157166,1.9572598934173584,2.1942858695983887,10.588356971740723
1713723967662630077,-0.027696875855326653,0.03941478580236435,-0.014913702383637428,1.908178687095642,3.1052794456481934,12.270283699035645
1713723967672630077,-0.15126754343509674,0.08415588736534119,0.013848437927663326,1.095347285270691,1.3227964639663696,10.808623313903809
1713723967681630077,-0.06285060197114944,0.01810949482023716,-0.037284255027770996,-2.079364061355591,-3.337517023086548,8.9064302444458
1713723967691630077,-0.011717909015715122,-0.05326322093605995,0.06285060197114944,-2.5893290042877197,-4.93923807144165,8.009801864624023
1713723967700630077,0.16085493564605713,-0.06604639440774918,0.01810949482023716,0.6763619780540466,-1.1552022695541382,8.792705535888672
1713723967710630077,0.12144014239311218,-0.009587380103766918,0.012783173471689224,1.985990285873413,2.0590133666992188,10.38844108581543
1713723967719630077,0.019174760207533836,0.0511326938867569,-0.014913702383637428,1.9333178997039795,3.22139835357666,11.891999244689941
1713723967729630077,-0.14061491191387177,0.09800432622432709,-0.00532632227987051,1.0438718795776367,2.098517656326294,11.350910186767578
1713723967739630077,-0.12676647305488586,0.044741105288267136,-0.037284255027770996,-2.318784236907959,-2.188300371170044,10.232817649841309
1713723967747461992,-0.02556634694337845,-0.07243797928094864,0.034088462591171265,-4.144362926483154,-6.232106685638428,7.970297336578369
1713723967757461992,0.10120011866092682,-0.09693906456232071,0.07137271761894226,-0.2621650695800781,-3.0980968475341797,9.032125473022461
1713723967767461992,0.19281286001205444,-0.04367584362626076,0.001065264455974102,2.6898856163024902,1.260547161102295,10.81700325012207
1713723967777461992,0.09800432622432709,0.049002163112163544,0.008522115647792816,2.4193408489227295,2.232593059539795,10.369287490844727
1713723967786461992,-0.06817692518234253,0.10972223430871964,-0.012783173471689224,1.3850456476211548,2.40736985206604,11.487380027770996
1713723967795461992,-0.16405072808265686,0.09587380290031433,-0.022370552644133568,-0.6500257253646851,0.6272808313369751,11.659762382507324
1713723967805461992,-0.04367584362626076,-0.020240023732185364,-0.014913702383637428,-3.846284866333008,-4.448426723480225,8.78193187713623
1713723967815461992,-0.013848437927663326,-0.09906959533691406,0.058589544147253036,-2.519897222518921,-4.742913722991943,8.037335395812988
1713723967825461992,0.1715075671672821,-0.10865697264671326,0.006391586735844612,1.6795324087142944,-0.4704606235027313,8.465896606445312
1713723967834461992,0.08309062570333481,-0.019174760207533836,0.012783173471689224,2.782062292098999,2.118868350982666,10.42315673828125
1713723967843461992,-0.017044231295585632,0.06604639440774918,-0.03941478580236435,2.472013235092163,3.205836057662964,12.771868705749512
1713723967853461992,-0.16511598229408264,0.11717908829450607,-0.01065264455974102,1.1061211824417114,1.338358759880066,12.336124420166016
1713723967863461992,-0.04261057823896408,0.020240023732185364,-0.05965480953454971,-3.384204149246216,-4.733336448669434,9.800664901733398
1713723967873461992,0.017044231295585632,-0.07563377171754837,0.07030745595693588,-4.089296340942383,-6.994660377502441,7.576451301574707
1713723967882461992,0.22370553016662598,-0.10546118021011353,0.019174760207533836,0.6392518281936646,-1.7788918018341064,8.69095230102539
1713723967891461992,0.20985709130764008,-0.03834952041506767,0.00532632227987051,2.366668224334717,2.2685060501098633,10.169371604919434
1713723967901461992,0.10972223430871964,0.03515372797846794,-0.019174760207533836,1.9285293817520142,3.8714241981506348,10.807426452636719
1713723967911461992,-0.08309062570333481,0.09161274135112762,0.0,1.015141487121582,3.4536359310150146,10.772710800170898
1713723967920461992,-0.22370553016662598,0.092678003013134,-0.013848437927663326,0.1759738177061081,1.6579846143722534,10.5715970993042
1713723967930461992,-0.10759171098470688,0.002130528911948204,-0.03834952041506767,-3.162740468978882,-3.6176388263702393,8.761581420898438
1713723967939461992,-0.044741105288267136,-0.092678003013134,0.049002163112163544,-3.6535518169403076,-5.985504150390625,8.038532257080078
1713723967949461992,0.13848437368869781,-0.11398329585790634,0.027696875855326653,0.9911994934082031,-1.8519150018692017,9.352949142456055
1713723967958461992,0.11398329585790634,-0.034088462591171265,0.00532632227987051,2.9484593868255615,1.7142484188079834,11.298237800598145
1713723967968461992,0.027696875855326653,0.05645901337265968,-0.02130528911948204,2.606088399887085,2.4887726306915283,12.173317909240723
1713723967978461992,-0.12889699637889862,0.1299622654914856,0.009587380103766918,1.601720929145813,1.400607943534851,11.57596492767334
1713723967987461992,-0.05965480953454971,0.06817692518234253,-0.06072007119655609,-2.868253707885742,-3.094505548477173,10.960655212402344
1713723967998461992,0.05006742849946022,-0.05965480953454971,0.03941478580236435,-5.489904403686523,-7.2568254470825195,8.702922821044922
1713723968006461992,0.1672465205192566,-0.1299622654914856,0.05326322093605995,-0.8535329103469849,-3.1699230670928955,9.66539192199707
1713723968016461992,0.27483823895454407,-0.11930961906909943,-0.013848437927663326,2.4815900325775146,1.50355863571167,10.012551307678223
1713723968026461992,0.18322548270225525,-0.034088462591171265,-0.012783173471689224,2.1140799522399902,2.536656618118286,8.518569946289062
1713723968035461992,0.047936901450157166,0.037284255027770996,-0.004261057823896408,1.6077064275741577,3.490746021270752,9.730035781860352
1713723968045461992,-0.09374327212572098,0.0788295716047287,-0.014913702383637428,0.8008604645729065,3.135207176208496,9.57441234588623
1713723968054461992,-0.20985709130764008,0.09587380290031433,0.02556634694337845,0.30526071786880493,1.9165583848953247,9.57321548461914
1713723968064461992,-0.21944446861743927,0.08415588736534119,-0.009587380103766918,-0.651222825050354,-0.009576806798577309,10.14902114868164
1713723968074461992,-0.09906959533691406,-0.017044231295585632,0.0,-3.406949043273926,-3.9887399673461914,9.36013126373291
1713723968083461992,-0.08522115647792816,-0.09693906456232071,0.07669904083013535,-2.211045265197754,-3.9887399673461914,10.36689281463623
1713723968093461992,0.020240023732185364,-0.09054747968912125,0.03515372797846794,1.8734627962112427,-0.9612719416618347,11.920729637145996
1713723968102461992,-0.030892668291926384,0.004261057823896408,0.022370552644133568,2.715024709701538,-0.7577648162841797,12.804190635681152
1713723968112461992,0.09161274135112762,0.03195793181657791,-0.04261057823896408,-0.22744916379451752,-3.936067581176758,12.033257484436035
1713723968121461992,0.14168016612529755,0.008522115647792816,0.03302319720387459,-1.8567034006118774,-5.558139324188232,9.040505409240723
1713723968132461992,0.27164241671562195,-0.01810949482023716,0.01810949482023716,0.5027823448181152,-1.8279730081558228,8.498218536376953
1713723968141461992,0.2727077007293701,0.011717909015715122,-0.004261057823896408,1.5131354331970215,1.9225438833236694,8.877699851989746
1713723968150461992,0.20772656798362732,0.04580637067556381,-0.019174760207533836,0.8379705548286438,3.8151602745056152,8.188169479370117
1713723968160461992,0.037284255027770996,0.052197955548763275,-0.001065264455974102,0.023942016065120697,4.77044677734375,8.281543731689453
1713723968170461992,-0.13528858125209808,0.03834952041506767,-0.011717909015715122,-0.5003881454467773,4.677073001861572,9.390058517456055
1713723968179461992,-0.26738137006759644,0.013848437927663326,0.013848437927663326,-0.628477931022644,2.873042106628418,9.370904922485352
1713723968189461992,-0.30466562509536743,-0.026631610468029976,0.003195793367922306,-1.0330979824066162,0.0,10.60391902923584
1713723968198461992,-0.17044231295585632,-0.10759171098470688,0.008522115647792816,-2.535459518432617,-4.690240859985352,10.33098030090332
1713723968208461992,-0.1065264418721199,-0.12357067316770554,0.0884169489145279,0.31842881441116333,-6.021417140960693,11.431116104125977
1713723968218461992,0.034088462591171265,-0.023435818031430244,0.026631610468029976,4.412513732910156,-3.44765043258667,12.769474983215332
1713723968227461992,0.09480853378772736,0.09693906456232071,-0.052197955548763275,2.5438392162323,-2.942473888397217,12.136208534240723
1713723968237461992,0.18429075181484222,0.10333064943552017,-0.029827404767274857,-1.4652514457702637,-4.0330328941345215,10.904391288757324
1713723968246461992,0.21092236042022705,0.05752427875995636,0.029827404767274857,-1.886630892753601,-2.0374655723571777,9.39245319366455
1713723968256461992,0.2918824553489685,0.001065264455974102,-0.019174760207533836,-0.3603273630142212,1.139639973640442,7.940369606018066
1713723968266461992,0.20772656798362732,-0.00532632227987051,0.022370552644133568,-0.15322890877723694,2.779668092727661,6.92881965637207
1713723968275461992,0.07563377171754837,-0.007456851191818714,-0.019174760207533836,0.22625206410884857,4.711788654327393,8.562862396240234
1713723968285461992,-0.09161274135112762,-0.001065264455974102,0.013848437927663326,0.456095427274704,5.039794445037842,9.4822359085083
1713723968295461992,-0.2556634545326233,0.013848437927663326,-0.01065264455974102,0.5195417404174805,3.487154722213745,9.911994934082031
1713723968304461992,-0.32703617215156555,0.019174760207533836,-0.003195793367922306,0.015562310814857483,0.590170681476593,10.992977142333984
1713723968314461992,-0.16937704384326935,-0.07350324839353561,-0.027696875855326653,-3.074154853820801,-5.035006046295166,9.379284858703613
1713723968323461992,-0.10865697264671326,-0.12676647305488586,0.08202536404132843,-1.625662922859192,-6.4799065589904785,9.781511306762695
1713723968333461992,0.06924218684434891,-0.07030745595693588,0.013848437927663326,3.5625720024108887,-2.22660756111145,11.751938819885254
1713723968342461992,0.05326322093605995,0.07563377171754837,0.004261057823896408,4.0545806884765625,0.0,12.246341705322266
1713723968353461992,0.04580637067556381,0.1768338978290558,-0.047936901450157166,1.3922282457351685,-0.50876784324646,12.85446834564209
1713723968361461992,0.1342233121395111,0.1203748807311058,-0.029827404767274857,-3.6583402156829834,-4.180275917053223,10.287884712219238
1713723968371461992,0.13315805792808533,0.007456851191818714,0.05326322093605995,-4.0749311447143555,-3.9228994846343994,8.793902397155762
1713723968381461992,0.24820661544799805,-0.06711165606975555,0.049002163112163544,-0.669179379940033,0.243011474609375,7.9858598709106445
1713723968390461992,0.16298545897006989,-0.06072007119655609,0.05006742849946022,0.6368576288223267,2.8802247047424316,8.564059257507324
1713723968401461992,0.092678003013134,-0.01810949482023716,0.014913702383637428,0.93254154920578,4.0964789390563965,8.819042205810547
1713723968409461992,-0.07243797928094864,0.023435818031430244,0.07243797928094864,0.667982280254364,3.9899370670318604,8.974664688110352
1713723968419461992,-0.17896442115306854,0.05326322093605995,0.022370552644133568,0.4800374209880829,3.161543369293213,9.885658264160156
1713723968429461992,-0.2641855776309967,0.0788295716047287,0.0884169489145279,0.22026655077934265,1.3850456476211548,9.593565940856934
1713723968439461992,-0.17896442115306854,0.02130528911948204,-0.004261057823896408,-2.2421698570251465,-2.557007312774658,9.78989028930664
1713723968448461992,-0.11291802674531937,-0.08628641813993454,0.11504855751991272,-3.7696704864501953,-5.56053352355957,10.108319282531738
1713723968457461992,-0.03195793181657791,-0.11824434995651245,0.10865697264671326,0.2513911724090576,-2.761711597442627,12.345701217651367
1713723968467461992,0.009587380103766918,-0.029827404767274857,0.08096009492874146,3.355473518371582,-0.5422866940498352,13.00051498413086
1713723968477461992,0.023435818031430244,0.07030745595693588,0.03515372797846794,2.055422067642212,-2.2685060501098633,11.948263168334961
1713723968487461992,0.13209278881549835,0.06924218684434891,0.029827404767274857,-1.2940659523010254,-5.264849662780762,9.874884605407715
1713723968496461992,0.1672465205192566,0.030892668291926384,0.09906959533691406,-1.434126853942871,-3.5434184074401855,9.223661422729492
1713723968505461992,0.2908172011375427,0.003195793367922306,0.047936901450157166,0.49320554733276367,0.5817909836769104,8.51138687133789
1713723968515461992,0.19813919067382812,0.026631610468029976,0.06711165606975555,0.33518823981285095,2.7078421115875244,7.660248279571533
1713723968525461992,0.06072007119655609,0.03515372797846794,0.04687163606286049,0.06464344263076782,4.751293182373047,9.30386734008789
1713723968535461992,-0.10439591109752655,0.037284255027770996,0.06711165606975555,-0.32202011346817017,4.786009311676025,9.621099472045898
1713723968544461992,-0.24714134633541107,0.024501081556081772,0.06817692518234253,-0.608127236366272,3.0358476638793945,9.617507934570312
1713723968553461992,-0.27483823895454407,-0.01810949482023716,0.07350324839353561,-1.5514426231384277,-0.020350713282823563,10.431536674499512
1713723968563461992,-0.1576591432094574,-0.10759171098470688,0.08522115647792816,-2.8383259773254395,-4.3610382080078125,9.39245319366455
1713723968573461992,-0.11078750342130661,-0.12144014239311218,0.15872439742088318,0.17717091739177704,-4.2509050369262695,9.962272644042969
1713723968582461992,0.020240023732185364,-0.03834952041506767,0.08415588736534119,3.9480385780334473,-1.5526397228240967,11.589133262634277
1713723968592461992,-0.020240023732185364,0.10333064943552017,0.09054747968912125,3.6954503059387207,-1.1324573755264282,12.502521514892578
1713723968601461992,0.09587380290031433,0.12676647305488586,0.01065264455974102,-0.9169792532920837,-3.7696704864501953,12.42351245880127
1713723968611461992,0.13315805792808533,0.04261057823896408,0.1065264418721199,-4.0761284828186035,-5.612008571624756,9.701305389404297
1713723968621461992,0.23009711503982544,-0.034088462591171265,0.11930961906909943,-1.3407529592514038,-1.5646108388900757,8.942342758178711
1713723968630461992,0.250337153673172,-0.037284255027770996,0.08628641813993454,0.712274968624115,2.2385785579681396,8.880093574523926
1713723968640461992,0.18002969026565552,0.014913702383637428,0.1022653877735138,0.6883329749107361,3.5865139961242676,7.819462776184082
1713723968649461992,0.01810949482023716,0.05432848632335663,0.09480853378772736,0.020350713282823563,4.54299783706665,8.35456657409668
1713723968660461992,-0.13528858125209808,0.0649811327457428,0.12357067316770554,-0.7745242118835449,4.438849925994873,9.671377182006836
1713723968669461992,-0.27483823895454407,0.052197955548763275,0.14700649678707123,-1.1264718770980835,2.8203694820404053,10.032901763916016
1713723968678461992,-0.27483823895454407,0.003195793367922306,0.14487595856189728,-2.383427858352661,-0.5542576909065247,10.72602367401123
1713723968688461992,-0.1576591432094574,-0.11398329585790634,0.1757686287164688,-3.9384617805480957,-5.134365558624268,9.204507827758789
1713723968698461992,-0.1022653877735138,-0.14594122767448425,0.2460760921239853,-0.2106897532939911,-4.195838451385498,9.907206535339355
1713723968707461992,0.03515372797846794,-0.06711165606975555,0.16511598229408264,3.931279182434082,-1.0319008827209473,11.131840705871582
1713723968716461992,-0.019174760207533836,0.08309062570333481,0.1672465205192566,3.9252936840057373,-0.7098807692527771,11.563994407653809
1713723968726461992,-0.00532632227987051,0.16618125140666962,0.1203748807311058,0.8750807046890259,-1.6807295083999634,13.692439079284668
1713723968736461992,0.11078750342130661,0.07989483326673508,0.11824434995651245,-4.025850296020508,-5.541379928588867,11.165359497070312
1713723968745461992,0.13209278881549835,-0.009587380103766918,0.23755396902561188,-3.044227361679077,-4.343081951141357,9.338583946228027
1713723968755461992,0.2833603322505951,-0.06178533658385277,0.15552860498428345,0.41539397835731506,-0.03711012750864029,7.679401874542236
1713723968764461992,0.1768338978290558,-0.019174760207533836,0.2034655064344406,0.9421183466911316,2.3271639347076416,7.668627738952637
1713723968774461992,0.09161274135112762,0.019174760207533836,0.11930961906909943,0.6224924325942993,4.309563159942627,9.182960510253906
1713723968784461992,-0.07456851005554199,0.044741105288267136,0.20559602975845337,0.17836801707744598,4.520252704620361,9.150638580322266
1713723968794461992,-0.2183792144060135,0.04580637067556381,0.14913702011108398,0.15682020783424377,3.5254619121551514,10.065223693847656
1713723968803461992,-0.3099919557571411,0.05645901337265968,0.21624867618083954,0.272938996553421,1.3479355573654175,10.187328338623047
1713723968813461992,-0.17363810539245605,-0.02130528911948204,0.1299622654914856,-2.5665841102600098,-4.1180267333984375,9.679757118225098
1713723968822461992,-0.10333064943552017,-0.10120011866092682,0.25246766209602356,-3.021482467651367,-6.720523834228516,9.080009460449219
1713723968832461992,0.07456851005554199,-0.092678003013134,0.21624867618083954,1.7741034030914307,-2.540247917175293,10.15141487121582
1713723968842461992,0.08096009492874146,0.026631610468029976,0.18748654425144196,3.772064685821533,0.8571242094039917,11.767500877380371
1713723968851461992,0.024501081556081772,0.14487595856189728,0.14913702011108398,2.6455929279327393,1.4089876413345337,12.132616996765137
1713723968860461992,-0.07350324839353561,0.18216021358966827,0.15659387409687042,-0.7386112213134766,-0.21547815203666687,13.309367179870605
1713723968870461992,0.034088462591171265,0.023435818031430244,0.12889699637889862,-4.812345504760742,-5.155913352966309,11.03248119354248
1713723968880461992,0.047936901450157166,-0.09054747968912125,0.25672873854637146,-3.5889081954956055,-5.835866451263428,8.066065788269043
1713723968889461992,0.2269013226032257,-0.1299622654914856,0.17789916694164276,0.5614402890205383,-1.216254472732544,8.343792915344238
1713723968899461992,0.19707392156124115,-0.047936901450157166,0.18429075181484222,2.0027496814727783,1.7585411071777344,8.339004516601562
1713723968908461992,0.13848437368869781,0.03621898964047432,0.15872439742088318,1.5598224401474,3.7253777980804443,8.799888610839844
1713723968918461992,-0.011717909015715122,0.08415588736534119,0.1896170675754547,0.6967126727104187,4.705803394317627,9.497797966003418
1713723968927461992,-0.17789916694164276,0.09054747968912125,0.1810949593782425,-0.07541735470294952,4.1826701164245605,10.073603630065918
1713723968937461992,-0.3302319645881653,0.08202536404132843,0.21092236042022705,-0.22744916379451752,2.298433542251587,10.487800598144531
1713723968947461992,-0.22477079927921295,-0.008522115647792816,0.1533980816602707,-3.110067844390869,-3.222595453262329,10.15141487121582
1713723968956461992,-0.12250541150569916,-0.13209278881549835,0.24927188456058502,-4.614823818206787,-7.619546890258789,8.768763542175293
1713723968967461992,0.026631610468029976,-0.1438107043504715,0.25779399275779724,0.7673416137695312,-3.6559460163116455,11.00015926361084
1713723968976461992,0.11930961906909943,-0.047936901450157166,0.18748654425144196,4.331110954284668,0.32441431283950806,11.8225679397583
1713723968985461992,0.05432848632335663,0.08628641813993454,0.17257283627986908,3.77565598487854,0.4692635238170624,10.551246643066406
1713723968995461992,-0.04048004746437073,0.19387812912464142,0.16831177473068237,2.1559786796569824,0.5135562419891357,10.825383186340332
1713723969004461992,-0.01810949482023716,0.15552860498428345,0.11291802674531937,-2.3463175296783447,-1.4137760400772095,10.386046409606934
1713723969015461992,0.02556634694337845,0.02130528911948204,0.2087918221950531,-4.46518611907959,-3.6834793090820312,9.057265281677246
1713723969024461992,0.06072007119655609,-0.05645901337265968,0.20240023732185364,-1.8267759084701538,-1.1875240802764893,9.41639518737793
1713723969033461992,0.09800432622432709,-0.0649811327457428,0.2045307755470276,0.34596213698387146,1.5705963373184204,10.08557415008545
1713723969043461992,0.015978965908288956,-0.027696875855326653,0.18216021358966827,1.2988543510437012,1.6136919260025024,9.3026704788208
1713723969053461992,-0.09374327212572098,0.024501081556081772,0.17896442115306854,1.5885528326034546,1.578976035118103,10.055646896362305
1713723969062461992,-0.15446333587169647,0.0649811327457428,0.15126754343509674,1.1085153818130493,0.6332663297653198,10.643423080444336
1713723969071461992,-0.07456851005554199,0.022370552644133568,0.13528858125209808,-1.5873557329177856,-2.8634650707244873,9.757569313049316
1713723969081461992,-0.041545312851667404,-0.04687163606286049,0.19174760580062866,-2.3235726356506348,-4.183867454528809,9.330204010009766
1713723969091461992,0.07137271761894226,-0.07243797928094864,0.1672465205192566,0.5865793824195862,-1.2294225692749023,9.536105155944824
1713723969101461992,0.05752427875995636,-0.015978965908288956,0.15446333587169647,2.2146365642547607,1.0510544776916504,10.193313598632812
1713723969110461992,0.004261057823896408,0.049002163112163544,0.1161138266324997,2.2421698570251465,1.6891093254089355,10.5344877243042
1713723969120461992,-0.10972223430871964,0.10439591109752655,0.13102751970291138,1.3563152551651,1.2641384601593018,11.05642318725586
1713723969129461992,-0.08735168725252151,0.04687163606286049,0.06711165606975555,-1.9584569931030273,-2.2242133617401123,11.918335914611816
1713723969139461992,-0.014913702383637428,-0.092678003013134,0.14168016612529755,-4.000710964202881,-6.246472358703613,10.158597946166992
1713723969148461992,0.08202536404132843,-0.13741911947727203,0.1619201898574829,0.28730419278144836,-3.689464807510376,9.734824180603027
1713723969158461992,0.2183792144060135,-0.06285060197114944,0.06711165606975555,3.5889081954956055,-0.005985504016280174,9.102754592895508
1713723969168461992,0.17896442115306854,0.049002163112163544,0.058589544147253036,2.851494073867798,1.0809820890426636,8.194154739379883
1713723969177461992,0.07030745595693588,0.1161138266324997,0.034088462591171265,1.545457124710083,2.7880477905273438,10.23880386352539
1713723969187461992,-0.06391586363315582,0.11291802674531937,0.024501081556081772,-0.04429272934794426,3.1735143661499023,10.552443504333496
1713723969196461992,-0.19813919067382812,0.07563377171754837,0.052197955548763275,-0.8678981065750122,1.9704279899597168,9.928753852844238
1713723969206461992,-0.1896170675754547,-0.008522115647792816,0.020240023732185364,-2.3678653240203857,-0.9229647517204285,9.434351921081543
1713723969216461992,-0.12144014239311218,-0.10013485699892044,0.08948221057653427,-2.3678653240203857,-3.642777919769287,8.530540466308594
1713723969225461992,-0.02556634694337845,-0.10439591109752655,0.08948221057653427,1.1444283723831177,-2.3307552337646484,9.239224433898926
1713723969235461992,0.026631610468029976,-0.007456851191818714,0.05326322093605995,3.2525229454040527,-0.06703764945268631,10.796652793884277
1713723969244461992,-0.023435818031430244,0.10333064943552017,0.02130528911948204,2.491166830062866,0.42018237709999084,12.099098205566406
1713723969254461992,-0.03941478580236435,0.10865697264671326,-0.008522115647792816,-1.0043675899505615,-1.544260025024414,13.381193161010742
1713723969263461992,0.03515372797846794,-0.029827404767274857,0.007456851191818714,-4.080916881561279,-5.832275390625,11.184513092041016
1713723969273461992,0.07989483326673508,-0.09480853378772736,0.11185276508331299,-0.894234299659729,-4.346673011779785,9.570820808410645
1713723969283461992,0.26205503940582275,-0.05326322093605995,-0.003195793367922306,2.652775526046753,-0.5051765441894531,8.045714378356934
1713723969292461992,0.21518342196941376,0.052197955548763275,0.02130528911948204,2.2840683460235596,1.1312602758407593,7.207744121551514
1713723969302461992,0.11717908829450607,0.10439591109752655,-0.024501081556081772,1.0630255937576294,3.7433342933654785,9.642646789550781
1713723969312461992,-0.052197955548763275,0.09587380290031433,-0.01065264455974102,-0.3447650372982025,4.654327869415283,10.493785858154297
1713723969321461992,-0.23968449234962463,0.04367584362626076,-0.002130528911948204,-0.8834604024887085,3.3494880199432373,10.472237586975098
1713723969331461992,-0.2972087860107422,-0.015978965908288956,-0.022370552644133568,-1.6615759134292603,-0.0694318488240242,11.320982933044434
1713723969340461992,-0.14168016612529755,-0.1257012039422989,0.002130528911948204,-3.139995574951172,-5.773617267608643,9.351751327514648
1713723969350461992,-0.027696875855326653,-0.10865697264671326,0.07776430249214172,0.9588777422904968,-6.252457618713379,8.250418663024902
1713723969360461992,0.14913702011108398,-0.002130528911948204,-0.041545312851667404,4.3861775398254395,-1.665167212486267,9.81024169921875
1713723969369461992,0.12357067316770554,0.12463594228029251,-0.02130528911948204,2.740163803100586,1.0486602783203125,11.285069465637207
1713723969379461992,0.03302319720387459,0.17044231295585632,-0.08202536404132843,1.1444283723831177,1.890222191810608,12.008118629455566
1713723969388461992,-0.0649811327457428,0.11717908829450607,-0.052197955548763275,-2.5893290042877197,0.17956513166427612,12.253523826599121
1713723969398461992,-0.011717909015715122,-0.04580637067556381,-0.03515372797846794,-4.483142375946045,-3.558980703353882,10.156203269958496
1713723969408461992,0.007456851191818714,-0.10972223430871964,0.04687163606286049,-1.1276689767837524,-3.5003228187561035,8.763975143432617
1713723969417461992,0.15552860498428345,-0.07669904083013535,-0.027696875855326653,2.191891670227051,-0.93254154920578,8.439560890197754
1713723969427461992,0.12357067316770554,0.029827404767274857,-0.015978965908288956,2.5917232036590576,0.5255272388458252,8.165424346923828
1713723969437461992,0.07563377171754837,0.1065264418721199,-0.052197955548763275,1.7489643096923828,2.3116016387939453,9.953893661499023
1713723969446461992,-0.02556634694337845,0.13209278881549835,-0.05432848632335663,0.090979665517807,2.6862943172454834,9.88086986541748
1713723969456461992,-0.14274543523788452,0.09161274135112762,-0.05432848632335663,-1.5945383310317993,1.8160020112991333,10.831368446350098
1713723969465461992,-0.10333064943552017,-0.03195793181657791,-0.04687163606286049,-3.907337188720703,-1.5981296300888062,10.000580787658691
1713723969475461992,-0.09906959533691406,-0.12357067316770554,0.037284255027770996,-2.919728994369507,-3.381809949874878,9.14345645904541
1713723969484461992,0.012783173471689224,-0.12357067316770554,-0.002130528911948204,1.2413935661315918,-1.40180504322052,9.649829864501953
1713723969495461992,0.01065264455974102,-0.026631610468029976,-0.017044231295585632,3.004723072052002,0.09816227108240128,10.644620895385742
1713723969504461992,-0.01065264455974102,0.06924218684434891,-0.05965480953454971,2.669534921646118,0.25737667083740234,11.314996719360352
1713723969513461992,-0.03195793181657791,0.10013485699892044,-0.06604639440774918,0.10534487664699554,-1.3850456476211548,11.796231269836426
1713723969523461992,0.047936901450157166,0.014913702383637428,-0.06178533658385277,-2.9472622871398926,-4.745307922363281,11.161767959594727
1713723969533461992,0.08415588736534119,-0.03834952041506767,0.03515372797846794,-1.1216834783554077,-3.91092848777771,10.133458137512207
1713723969542461992,0.22477079927921295,-0.01065264455974102,-0.044741105288267136,1.8770540952682495,-0.6883329749107361,8.731653213500977
1713723969552461992,0.18642127513885498,0.06817692518234253,-0.034088462591171265,1.6735469102859497,0.8774749040603638,7.722497463226318
1713723969561461992,0.10865697264671326,0.10333064943552017,-0.05645901337265968,0.5746083855628967,2.934094190597534,9.23563289642334
1713723969571461992,-0.008522115647792816,0.09161274135112762,-0.058589544147253036,-0.7948749661445618,3.5865139961242676,9.45111083984375
1713723969581461992,-0.15446333587169647,0.03941478580236435,-0.03621898964047432,-1.5322890281677246,2.7760767936706543,9.819818496704102
1713723969590461992,-0.2173139452934265,-0.023435818031430244,-0.03621898964047432,-1.667561411857605,0.608127236366272,10.858901977539062
1713723969599461992,-0.1257012039422989,-0.09480853378772736,-0.01810949482023716,-2.341529130935669,-3.530250310897827,10.044873237609863
1713723969609461992,-0.06817692518234253,-0.09587380290031433,0.01810949482023716,-0.3471592366695404,-4.368220806121826,9.651026725769043
1713723969619461992,0.0649811327457428,-0.029827404767274857,-0.03834952041506767,2.699462413787842,-1.6927006244659424,10.380061149597168
1713723969628461992,0.049002163112163544,0.06178533658385277,-0.05752427875995636,2.5941174030303955,-0.1843535304069519,10.988188743591309
1713723969638461992,0.020240023732185364,0.09906959533691406,-0.09054747968912125,1.0187327861785889,0.031124621629714966,11.695674896240234
1713723969647461992,0.04687163606286049,0.058589544147253036,-0.08628641813993454,-1.8950105905532837,-2.140416383743286,10.542866706848145
1713723969657461992,0.03941478580236435,-0.008522115647792816,-0.024501081556081772,-2.3080103397369385,-2.7748796939849854,9.396044731140137
1713723969667461992,0.1161138266324997,-0.02876213937997818,-0.03834952041506767,-0.03950432687997818,-0.6943184733390808,8.991424560546875
1713723969676461992,0.1022653877735138,0.001065264455974102,-0.041545312851667404,0.8403647541999817,0.9672574996948242,8.991424560546875
1713723969686461992,0.07563377171754837,0.023435818031430244,-0.055393751710653305,0.7146691679954529,1.8195933103561401,8.882488250732422
1713723969696461992,-0.01810949482023716,0.04261057823896408,-0.04367584362626076,0.21428105235099792,2.182314872741699,9.285911560058594
1713723969706461992,-0.1065264418721199,0.03941478580236435,-0.06817692518234253,-0.4129997789859772,1.9776105880737305,10.170568466186523
