t,gx,gy,gz,ax,ay,az
1713723961487437051,-0.004261057823896408,-0.003195793367922306,-0.00532632227987051,0.040701426565647125,-0.5135562419891357,9.850942611694336
1713723961497437051,-0.004261057823896408,-0.002130528911948204,-0.00532632227987051,0.031124621629714966,-0.5135562419891357,9.849745750427246
1713723961507437051,-0.00532632227987051,-0.002130528911948204,-0.00532632227987051,0.011971008032560349,-0.5374982953071594,9.84735107421875
1713723961516437051,-0.004261057823896408,-0.002130528911948204,-0.00532632227987051,0.020350713282823563,-0.5374982953071594,9.849745750427246
1713723961525437051,-0.004261057823896408,-0.002130528911948204,-0.00532632227987051,0.03950432687997818,-0.5147533416748047,9.850942611694336
1713723961535437051,-0.00532632227987051,-0.002130528911948204,-0.00532632227987051,0.0347159244120121,-0.5195417404174805,9.850942611694336
1713723961545437051,-0.00532632227987051,-0.001065264455974102,-0.006391586735844612,0.017956512048840523,-0.5398924946784973,9.849745750427246
1713723961554437051,-0.00532632227987051,-0.002130528911948204,-0.00532632227987051,0.02274491637945175,-0.5386953949928284,9.852139472961426
1713723961563437051,-0.00532632227987051,-0.002130528911948204,-0.00532632227987051,0.040701426565647125,-0.5183446407318115,9.858125686645508
1713723961573437051,-0.004261057823896408,-0.002130528911948204,-0.00532632227987051,0.03711012750864029,-0.5231330394744873,9.856927871704102
1713723961582437051,-0.004261057823896408,-0.002130528911948204,-0.00532632227987051,0.017956512048840523,-0.5422866940498352,9.853337287902832
1713723961592437051,-0.004261057823896408,-0.002130528911948204,-0.00532632227987051,0.017956512048840523,-0.5279214382171631,9.854534149169922
1713723961602437051,-0.004261057823896408,-0.002130528911948204,-0.006391586735844612,0.03232172131538391,-0.50876784324646,9.855731010437012
1713723961610437051,-0.004261057823896408,-0.002130528911948204,-0.00532632227987051,0.02513911761343479,-0.5195417404174805,9.854534149169922
1713723961620437051,-0.004261057823896408,-0.002130528911948204,-0.00532632227987051,0.014365210197865963,-0.5303156971931458,9.850942611694336
1713723961630437051,-0.00532632227987051,-0.002130528911948204,-0.00532632227987051,0.02274491637945175,-0.5219359397888184,9.849745750427246
1713723961639437051,-0.00532632227987051,-0.002130528911948204,-0.00532632227987051,0.035913024097681046,-0.5123591423034668,9.854534149169922
1713723961649437051,-0.00532632227987051,-0.003195793367922306,-0.00532632227987051,0.023942016065120697,-0.5231330394744873,9.855731010437012
1713723961658437051,-0.00532632227987051,-0.002130528911948204,-0.00532632227987051,0.017956512048840523,-0.5315127968788147,9.855731010437012
1713723961667437051,-0.004261057823896408,-0.002130528911948204,-0.00532632227987051,0.033518824726343155,-0.5255272388458252,9.856927871704102
1713723961677437051,-0.00532632227987051,-0.003195793367922306,-0.00532632227987051,0.040701426565647125,-0.5219359397888184,9.854534149169922
1713723961686437051,-0.00532632227987051,-0.003195793367922306,-0.006391586735844612,0.033518824726343155,-0.5303156971931458,9.854534149169922
1713723961696437051,-0.004261057823896408,-0.003195793367922306,-0.00532632227987051,0.028730420395731926,-0.5327098965644836,9.852139472961426
1713723961705437051,-0.004261057823896408,-0.003195793367922306,-0.00532632227987051,0.035913024097681046,-0.5171475410461426,9.853337287902832
1713723961715437051,-0.00532632227987051,-0.002130528911948204,-0.00532632227987051,0.035913024097681046,-0.5159504413604736,9.852139472961426
1713723961725437051,-0.00532632227987051,-0.002130528911948204,-0.00532632227987051,0.026336219161748886,-0.5339069962501526,9.849745750427246
1713723961734437051,-0.00532632227987051,-0.002130528911948204,-0.006391586735844612,0.023942016065120697,-0.5386953949928284,9.853337287902832
1713723961743437051,-0.004261057823896408,-0.002130528911948204,-0.006391586735844612,0.033518824726343155,-0.5195417404174805,9.852139472961426
1713723961753437051,-0.00532632227987051,-0.002130528911948204,-0.006391586735844612,0.02992752008140087,-0.5231330394744873,9.848548889160156
1713723961762437051,-0.00532632227987051,-0.002130528911948204,-0.00532632227987051,0.014365210197865963,-0.5434837937355042,9.84495735168457
1713723961771437051,-0.004261057823896408,-0.002130528911948204,-0.00532632227987051,0.02274491637945175,-0.5363011956214905,9.84376049041748
1713723961782437051,-0.00532632227987051,-0.002130528911948204,-0.00532632227987051,0.038307227194309235,-0.5171475410461426,9.849745750427246
1713723961791437051,-0.00532632227987051,-0.002130528911948204,-0.00532632227987051,0.031124621629714966,-0.5183446407318115,9.855731010437012
1713723961800437051,-0.004261057823896408,-0.003195793367922306,-0.006391586735844612,0.016759412363171577,-0.5374982953071594,9.850942611694336
1713723961810437051,-0.00532632227987051,-0.003195793367922306,-0.00532632227987051,0.02513911761343479,-0.5303156971931458,9.853337287902832
1713723961819437051,-0.00532632227987051,-0.003195793367922306,-0.00532632227987051,0.04668693244457245,-0.5099649429321289,9.856927871704102
1713723961828437051,-0.004261057823896408,-0.002130528911948204,-0.006391586735844612,0.040701426565647125,-0.5219359397888184,9.849745750427246
1713723961839437051,-0.00532632227987051,-0.002130528911948204,-0.00532632227987051,0.021547814831137657,-0.5434837937355042,9.84735107421875
1713723961847437051,-0.00532632227987051,-0.002130528911948204,-0.00532632227987051,0.0347159244120121,-0.529118537902832,9.852139472961426
1713723961857437051,-0.004261057823896408,-0.002130528911948204,-0.00532632227987051,0.0454898327589035,-0.5171475410461426,9.856927871704102
1713723961866437051,-0.00532632227987051,-0.002130528911948204,-0.00532632227987051,0.019153613597154617,-0.5267243385314941,9.855731010437012
1713723961876437051,-0.004261057823896408,-0.002130528911948204,-0.00532632227987051,0.0035913025494664907,-0.5327098965644836,9.850942611694336
1713723961885437051,-0.00532632227987051,-0.002130528911948204,-0.00532632227987051,0.026336219161748886,-0.5231330394744873,9.855731010437012
1713723961895437051,-0.00532632227987051,-0.002130528911948204,-0.00532632227987051,0.040701426565647125,-0.507570743560791,9.856927871704102
1713723961904437051,-0.00532632227987051,-0.002130528911948204,-0.006391586735844612,0.02513911761343479,-0.5255272388458252,9.856927871704102
1713723961914437051,-0.00532632227987051,-0.002130528911948204,-0.00532632227987051,0.017956512048840523,-0.5410895943641663,9.853337287902832
1713723961923437051,-0.004261057823896408,-0.002130528911948204,-0.00532632227987051,0.033518824726343155,-0.5231330394744873,9.849745750427246
1713723961933437051,-0.004261057823896408,-0.002130528911948204,-0.00532632227987051,0.04429272934794426,-0.5195417404174805,9.859322547912598
1713723961942437051,-0.004261057823896408,-0.002130528911948204,-0.00532632227987051,0.031124621629714966,-0.5351040959358215,9.858125686645508
1713723961952437051,-0.00532632227987051,-0.003195793367922306,-0.00532632227987051,0.017956512048840523,-0.5351040959358215,9.855731010437012
1713723961961437051,-0.004261057823896408,-0.003195793367922306,-0.00532632227987051,0.02753331884741783,-0.5159504413604736,9.856927871704102
1713723961971437051,-0.004261057823896408,-0.002130528911948204,-0.00532632227987051,0.038307227194309235,-0.5051765441894531,9.861716270446777
1713723961981437051,-0.004261057823896408,-0.002130528911948204,-0.00532632227987051,0.02753331884741783,-0.5195417404174805,9.859322547912598
1713723961989437051,-0.00532632227987051,-0.002130528911948204,-0.00532632227987051,0.019153613597154617,-0.5279214382171631,9.852139472961426
1713723961999437051,-0.00532632227987051,-0.003195793367922306,-0.006391586735844612,0.03232172131538391,-0.5147533416748047,9.852139472961426
1713723962008437051,-0.00532632227987051,-0.002130528911948204,-0.006391586735844612,0.04189852997660637,-0.5183446407318115,9.848548889160156
1713723962018437051,-0.00532632227987051,-0.002130528911948204,-0.006391586735844612,0.02513911761343479,-0.5398924946784973,9.855731010437012
1713723962027437051,-0.00532632227987051,-0.002130528911948204,-0.00532632227987051,0.016759412363171577,-0.5386953949928284,9.855731010437012
1713723962037437051,-0.00532632227987051,-0.002130528911948204,-0.00532632227987051,0.033518824726343155,-0.5159504413604736,9.858125686645508
1713723962046437051,-0.00532632227987051,-0.002130528911948204,-0.00532632227987051,0.0347159244120121,-0.5195417404174805,9.864110946655273
1713723962056437051,-0.00532632227987051,-0.002130528911948204,-0.006391586735844612,0.021547814831137657,-0.5327098965644836,9.858125686645508
1713723962065437051,-0.00532632227987051,-0.002130528911948204,-0.00532632227987051,0.02274491637945175,-0.5231330394744873,9.854534149169922
1713723962075437051,-0.004261057823896408,-0.002130528911948204,-0.006391586735844612,0.03232172131538391,-0.5171475410461426,9.853337287902832
1713723962084437051,-0.00532632227987051,-0.002130528911948204,-0.00532632227987051,0.033518824726343155,-0.5339069962501526,9.855731010437012
1713723962094437051,-0.00532632227987051,-0.002130528911948204,-0.006391586735844612,0.023942016065120697,-0.5422866940498352,9.862914085388184
1713723962104437051,-0.00532632227987051,-0.003195793367922306,-0.00532632227987051,0.026336219161748886,-0.5219359397888184,9.860519409179688
1713723962112437051,-0.004261057823896408,-0.002130528911948204,-0.00532632227987051,0.03711012750864029,-0.5123591423034668,9.852139472961426
1713723962122437051,-0.00532632227987051,-0.002130528911948204,-0.006391586735844612,0.02992752008140087,-0.5231330394744873,9.853337287902832
1713723962132328975,-0.00532632227987051,-0.002130528911948204,-0.00532632227987051,0.015562310814857483,-0.529118537902832,9.856927871704102
1713723962141328975,-0.00532632227987051,-0.002130528911948204,-0.00532632227987051,0.023942016065120697,-0.5219359397888184,9.855731010437012
1713723962151328975,-0.00532632227987051,-0.002130528911948204,-0.00532632227987051,0.03711012750864029,-0.5171475410461426,9.855731010437012
1713723962161328975,-0.00532632227987051,-0.002130528911948204,-0.00532632227987051,0.023942016065120697,-0.5303156971931458,9.859322547912598
1713723962169328975,-0.004261057823896408,-0.003195793367922306,-0.00532632227987051,0.016759412363171577,-0.5422866940498352,9.858125686645508
1713723962179328975,-0.004261057823896408,-0.002130528911948204,-0.00532632227987051,0.03232172131538391,-0.5243301391601562,9.862914085388184
1713723962189328975,-0.00532632227987051,-0.002130528911948204,-0.00532632227987051,0.038307227194309235,-0.5111620426177979,9.864110946655273
1713723962198328975,-0.00532632227987051,-0.002130528911948204,-0.006391586735844612,0.021547814831137657,-0.529118537902832,9.854534149169922
1713723962207328975,-0.00532632227987051,-0.002130528911948204,-0.00532632227987051,0.011971008032560349,-0.5339069962501526,9.859322547912598
1713723962217328975,-0.004261057823896408,-0.002130528911948204,-0.006391586735844612,0.02992752008140087,-0.5099649429321289,9.860519409179688
1713723962226328975,-0.004261057823896408,-0.003195793367922306,-0.006391586735844612,0.03950432687997818,-0.5099649429321289,9.858125686645508
1713723962236328975,-0.00532632227987051,-0.003195793367922306,-0.00532632227987051,0.028730420395731926,-0.5363011956214905,9.856927871704102
1713723962246328975,-0.00532632227987051,-0.003195793367922306,-0.00532632227987051,0.033518824726343155,-0.5446808934211731,9.860519409179688
1713723962255328975,-0.00532632227987051,-0.002130528911948204,-0.006391586735844612,0.04908113554120064,-0.5255272388458252,9.866504669189453
1713723962264328975,-0.00532632227987051,-0.002130528911948204,-0.006391586735844612,0.0454898327589035,-0.5207388401031494,9.860519409179688
1713723962274328975,-0.00532632227987051,-0.002130528911948204,-0.00532632227987051,0.02753331884741783,-0.5351040959358215,9.853337287902832
1713723962283328975,-0.004261057823896408,-0.003195793367922306,-0.00532632227987051,0.017956512048840523,-0.5303156971931458,9.860519409179688
1713723962293328975,-0.004261057823896408,-0.003195793367922306,-0.00532632227987051,0.03950432687997818,-0.5099649429321289,9.865307807922363
1713723962302328975,-0.004261057823896408,-0.003195793367922306,-0.006391586735844612,0.03950432687997818,-0.5183446407318115,9.859322547912598
1713723962312328975,-0.00532632227987051,-0.002130528911948204,-0.00532632227987051,0.015562310814857483,-0.5386953949928284,9.856927871704102
1713723962321328975,-0.00532632227987051,-0.002130528911948204,-0.00532632227987051,0.026336219161748886,-0.5374982953071594,9.858125686645508
1713723962331328975,-0.004261057823896408,-0.002130528911948204,-0.00532632227987051,0.04668693244457245,-0.5243301391601562,9.856927871704102
1713723962340328975,-0.00532632227987051,-0.002130528911948204,-0.00532632227987051,0.011971008032560349,-0.5327098965644836,9.9586820602417
1713723962350328975,0.003195793367922306,-0.004261057823896408,-0.007456851191818714,-0.0694318488240242,-0.6177040338516235,10.292673110961914
1713723962359328975,0.017044231295585632,-0.007456851191818714,-0.003195793367922306,0.3016694188117981,-0.3016694188117981,10.499771118164062
1713723962368328975,0.055393751710653305,0.01065264455974102,-0.008522115647792816,0.606930136680603,0.06703764945268631,9.915586471557617
1713723962378328975,0.07137271761894226,0.015978965908288956,-0.012783173471689224,0.24660277366638184,0.5722141861915588,10.144232749938965
1713723962387328975,0.10120011866092682,0.011717909015715122,-0.014913702383637428,-0.1628057062625885,1.5167267322540283,10.055646896362305
1713723962397328975,0.1065264418721199,-0.001065264455974102,-0.024501081556081772,-0.31842881441116333,2.2673089504241943,8.313865661621094
1713723962406328975,0.02876213937997818,-0.017044231295585632,-0.015978965908288956,-0.1867477297782898,3.469198226928711,10.145429611206055
1713723962416328975,0.006391586735844612,-0.02876213937997818,-0.04048004746437073,0.2992752194404602,4.042609691619873,11.334150314331055
1713723962426328975,-0.022370552644133568,-0.01810949482023716,-0.03195793181657791,0.8236053586006165,3.044227361679077,8.531737327575684
1713723962435328975,-0.0884169489145279,0.0,-0.04367584362626076,1.035492181777954,2.293645143508911,9.330204010009766
1713723962444328975,-0.07669904083013535,0.02130528911948204,-0.04367584362626076,0.7613561153411865,1.7585411071777344,10.648211479187012
1713723962454328975,-0.04580637067556381,0.03515372797846794,-0.04261057823896408,0.021547814831137657,0.8571242094039917,9.05606746673584
1713723962463328975,-0.052197955548763275,0.01810949482023716,-0.041545312851667404,-0.6991068720817566,0.669179379940033,9.440337181091309
1713723962473328975,-0.013848437927663326,-0.00532632227987051,-0.03834952041506767,-1.0079588890075684,0.7912836670875549,10.201693534851074
1713723962483328975,-0.009587380103766918,-0.02876213937997818,-0.029827404767274857,-0.8224082589149475,1.0127472877502441,10.204087257385254
1713723962492328975,0.01065264455974102,-0.04367584362626076,-0.034088462591171265,-0.22505494952201843,1.3467384576797485,10.120290756225586
1713723962501328975,-0.013848437927663326,-0.04367584362626076,-0.044741105288267136,0.5973533391952515,1.6328455209732056,10.566808700561523
1713723962511328975,-0.014913702383637428,-0.020240023732185364,-0.0511326938867569,1.2186486721038818,1.5933412313461304,10.990582466125488
1713723962520328975,-0.029827404767274857,0.012783173471689224,-0.06178533658385277,1.212663173675537,0.8475474119186401,10.42076301574707
1713723962530328975,-0.019174760207533836,0.030892668291926384,-0.047936901450157166,0.27054479718208313,-0.21547815203666687,10.135852813720703
1713723962540328975,0.019174760207533836,0.01810949482023716,-0.058589544147253036,-0.8307879567146301,-1.2856862545013428,8.937554359436035
1713723962548328975,0.03195793181657791,0.0,-0.01065264455974102,-0.851138710975647,-0.6859387755393982,8.664615631103516
1713723962558328975,0.04687163606286049,-0.017044231295585632,-0.03834952041506767,-0.24061726033687592,0.8487445116043091,9.315838813781738
1713723962567328975,0.01065264455974102,-0.015978965908288956,-0.020240023732185364,0.1867477297782898,1.7537527084350586,9.964667320251465
1713723962577328975,-0.047936901450157166,-0.007456851191818714,-0.03941478580236435,0.48722004890441895,1.9812018871307373,10.585962295532227
1713723962586328975,-0.092678003013134,0.002130528911948204,-0.03941478580236435,0.5626373887062073,0.8822633028030396,10.425551414489746
1713723962596328975,-0.05326322093605995,-0.020240023732185364,-0.058589544147253036,-1.0127472877502441,-2.5270798206329346,9.907206535339355
1713723962605328975,-0.019174760207533836,-0.04687163606286049,-0.01065264455974102,-1.3874398469924927,-4.2963948249816895,9.514557838439941
1713723962615328975,0.06817692518234253,-0.03834952041506767,-0.020240023732185364,1.1779471635818481,-2.0434510707855225,9.162610054016113
1713723962625328975,0.0884169489145279,0.017044231295585632,-0.03195793181657791,2.426523447036743,0.35075053572654724,9.103951454162598
1713723962634328975,0.07669904083013535,0.07137271761894226,-0.055393751710653305,1.4915876388549805,1.8914192914962769,8.712499618530273
1713723962643328975,-0.023435818031430244,0.08522115647792816,-0.05432848632335663,-0.23942016065120697,3.3710360527038574,10.022128105163574
1713723962653328975,-0.13315805792808533,0.04580637067556381,-0.06178533658385277,-1.9189525842666626,3.2836475372314453,12.689269065856934
1713723962662328975,-0.11291802674531937,-0.08096009492874146,-0.058589544147253036,-5.505466938018799,-2.6599581241607666,12.192471504211426
1713723962672328975,-0.07563377171754837,-0.20772656798362732,0.03941478580236435,-4.656722068786621,-8.316259384155273,10.15021800994873
1713723962681328975,0.09693906456232071,-0.15020228922367096,0.07669904083013535,4.572925090789795,-6.520608425140381,9.285911560058594
1713723962691328975,0.20666129887104034,0.009587380103766918,-0.06178533658385277,7.375338077545166,-2.256535053253174,9.192537307739258
1713723962700328975,0.2599245309829712,0.15446333587169647,-0.026631610468029976,3.4524388313293457,0.9361328482627869,7.957129001617432
1713723962710328975,0.17896442115306854,0.19813919067382812,-0.07243797928094864,0.34835633635520935,4.10366153717041,8.10437297821045
1713723962719328975,0.03621898964047432,0.15552860498428345,-0.023435818031430244,-2.6120738983154297,6.557718276977539,9.657011985778809
1713723962728328975,-0.148071750998497,0.06391586363315582,-0.027696875855326653,-3.709815502166748,6.435614109039307,10.467449188232422
1713723962738328975,-0.287621408700943,-0.03621898964047432,-0.014913702383637428,-3.4404678344726562,3.5865139961242676,11.112687110900879
1713723962747328975,-0.23542344570159912,-0.16831177473068237,0.004261057823896408,-4.422090530395508,-3.311180830001831,9.419986724853516
1713723962757328975,-0.16085493564605713,-0.22583605349063873,0.06285060197114944,-1.8016366958618164,-7.660248279571533,8.380903244018555
1713723962766328975,0.009587380103766918,-0.13315805792808533,0.05006742849946022,4.578910827636719,-4.879383087158203,9.465476036071777
1713723962776328975,0.09054747968912125,-0.001065264455974102,-0.03941478580236435,6.227318286895752,-1.1252747774124146,10.235212326049805
1713723962785328975,0.07563377171754837,0.13209278881549835,-0.029827404767274857,3.9169139862060547,1.3754688501358032,10.777499198913574
1713723962795328975,-0.02130528911948204,0.17363810539245605,-0.07669904083013535,0.3519476354122162,2.339134931564331,12.112266540527344
1713723962804328975,-0.011717909015715122,0.055393751710653305,-0.06178533658385277,-5.462370872497559,-1.647210717201233,11.344924926757812
1713723962813328975,-0.013848437927663326,-0.08948221057653427,0.034088462591171265,-5.018246650695801,-5.1798553466796875,9.283516883850098
1713723962823328975,0.07456851005554199,-0.11078750342130661,0.02556634694337845,1.0761936902999878,-2.5773580074310303,9.186552047729492
1713723962833328975,0.13635385036468506,-0.04580637067556381,-0.009587380103766918,3.3913867473602295,0.27413609623908997,8.803479194641113
1713723962842328975,0.1161138266324997,0.041545312851667404,-0.019174760207533836,3.132812976837158,2.0003554821014404,8.134300231933594
1713723962851328975,0.014913702383637428,0.10013485699892044,-0.026631610468029976,1.4891934394836426,3.9863457679748535,9.258378028869629
1713723962862328975,-0.10439591109752655,0.1065264418721199,-0.05006742849946022,-0.5781996846199036,4.376600742340088,10.405200004577637
1713723962870328975,-0.19600865244865417,0.052197955548763275,-0.024501081556081772,-3.047818660736084,2.0649988651275635,10.952275276184082
1713723962880328975,-0.13528858125209808,-0.07989483326673508,-0.030892668291926384,-5.170278549194336,-3.3255460262298584,9.672574996948242
1713723962890328975,-0.11930961906909943,-0.15552860498428345,0.07776430249214172,-2.231395959854126,-4.595670223236084,8.810662269592285
1713723962899328975,0.0,-0.12357067316770554,0.003195793367922306,3.0190882682800293,-1.3551181554794312,9.798270225524902
1713723962908328975,-0.02876213937997818,-0.008522115647792816,0.011717909015715122,4.467580318450928,0.3172317147254944,11.27190113067627
1713723962919328975,-0.05326322093605995,0.07989483326673508,-0.03834952041506767,3.0394389629364014,0.0586579404771328,12.746729850769043
1713723962927328975,0.019174760207533836,0.06391586363315582,-0.06391586363315582,-1.8160020112991333,-4.661510467529297,11.006145477294922
1713723962937328975,0.05645901337265968,-0.00532632227987051,0.03621898964047432,-2.894589900970459,-6.794744491577148,9.058462142944336
1713723962946328975,0.18216021358966827,-0.01810949482023716,0.014913702383637428,1.0342950820922852,-2.5127146244049072,8.9064302444458
1713723962956328975,0.19813919067382812,0.034088462591171265,-0.012783173471689224,2.0661959648132324,1.3910311460494995,8.989029884338379
1713723962965328975,0.15978966653347015,0.07137271761894226,-0.04048004746437073,0.8834604024887085,3.6343982219696045,7.9858598709106445
1713723962975328975,0.003195793367922306,0.06817692518234253,-0.008522115647792816,-0.7984662652015686,5.4659624099731445,8.80467700958252
1713723962984328975,-0.1438107043504715,0.02130528911948204,-0.05326322093605995,-1.8495208024978638,5.436034679412842,10.229227066040039
1713723962994328975,-0.2631203234195709,-0.03302319720387459,0.007456851191818714,-1.6962919235229492,2.911349296569824,9.999382972717285
1713723963003328975,-0.22050973773002625,-0.10439591109752655,-0.030892668291926384,-2.2900538444519043,-2.5450363159179688,9.582792282104492
1713723963013328975,-0.13528858125209808,-0.14274543523788452,0.04580637067556381,-1.522712230682373,-6.657077789306641,8.78073501586914
1713723963022328975,-0.023435818031430244,-0.08628641813993454,0.03515372797846794,2.807201385498047,-4.006696701049805,10.108319282531738
1713723963032328975,0.03515372797846794,0.022370552644133568,-0.030892668291926384,4.891354084014893,-0.27892449498176575,12.02966594696045
1713723963041328975,-0.004261057823896408,0.10439591109752655,-0.03195793181657791,2.4899697303771973,-0.13287819921970367,13.232752799987793
1713723963050328975,0.06924218684434891,0.058589544147253036,-0.0884169489145279,-3.090914249420166,-4.95120906829834,12.0021333694458
1713723963061328975,0.08735168725252151,-0.024501081556081772,0.05965480953454971,-3.494337320327759,-6.618770599365234,9.20211410522461
1713723963070328975,0.22370553016662598,-0.044741105288267136,0.006391586735844612,1.4939818382263184,-2.0231003761291504,8.100781440734863
1713723963079328975,0.22477079927921295,0.030892668291926384,-0.004261057823896408,2.8371288776397705,1.50355863571167,8.146270751953125
1713723963089328975,0.18322548270225525,0.09374327212572098,-0.041545312851667404,1.4508862495422363,4.1647138595581055,8.130708694458008
1713723963098328975,0.030892668291926384,0.09587380290031433,-0.02130528911948204,-0.872686505317688,6.247669219970703,8.379705429077148
1713723963107328975,-0.14913702011108398,0.03834952041506767,-0.04048004746437073,-2.474407434463501,6.396109580993652,9.7791166305542
1713723963117328975,-0.2908172011375427,-0.03515372797846794,-0.002130528911948204,-2.43011474609375,3.8534674644470215,10.230423927307129
1713723963126328975,-0.27164241671562195,-0.11291802674531937,-0.007456851191818714,-2.564189910888672,-1.6196774244308472,9.806650161743164
1713723963136328975,-0.17363810539245605,-0.1715075671672821,0.03302319720387459,-1.9333178997039795,-7.042544364929199,9.221267700195312
1713723963145328975,-0.05006742849946022,-0.10013485699892044,0.07563377171754837,3.294421434402466,-5.9292402267456055,10.204087257385254
1713723963155328975,0.03302319720387459,0.01810949482023716,-0.05752427875995636,5.7760114669799805,-1.646013617515564,12.149375915527344
1713723963164328975,0.04048004746437073,0.10120011866092682,-0.011717909015715122,2.2673089504241943,-1.1695674657821655,13.19324779510498
1713723963174328975,0.09906959533691406,0.0649811327457428,-0.08202536404132843,-2.5725696086883545,-4.8901567459106445,11.69926643371582
1713723963184328975,0.1203748807311058,0.003195793367922306,0.0511326938867569,-2.7521347999572754,-5.099649429321289,9.424775123596191
1713723963193328975,0.22903186082839966,-0.022370552644133568,-0.012783173471689224,0.9289502501487732,-1.0019733905792236,8.188169479370117
1713723963202328975,0.2087918221950531,0.023435818031430244,-0.00532632227987051,1.6184803247451782,1.9141641855239868,7.955932140350342
1713723963212328975,0.15020228922367096,0.055393751710653305,-0.02876213937997818,0.7637503147125244,4.294000625610352,8.121131896972656
1713723963221328975,0.006391586735844612,0.052197955548763275,-0.015978965908288956,-0.4453215003013611,5.884947776794434,8.287528991699219
1713723963230328975,-0.15978966653347015,0.020240023732185364,-0.02876213937997818,-1.2449848651885986,5.7556610107421875,9.594762802124023
1713723963241328975,-0.28442561626434326,-0.01810949482023716,-0.015978965908288956,-1.1288660764694214,3.331531524658203,10.36449909210205
1713723963249328975,-0.2460760921239853,-0.08202536404132843,-0.019174760207533836,-2.408566951751709,-2.404975652694702,10.245985984802246
1713723963259328975,-0.1395496428012848,-0.15020228922367096,0.015978965908288956,-2.760514497756958,-7.971494197845459,9.604339599609375
1713723963269328975,-0.027696875855326653,-0.11078750342130661,0.06711165606975555,2.2361843585968018,-5.5545477867126465,10.714052200317383
1713723963278328975,0.07563377171754837,-0.002130528911948204,-0.04687163606286049,5.384559631347656,-0.8978255987167358,11.702857971191406
1713723963287328975,0.030892668291926384,0.10546118021011353,-0.024501081556081772,3.756502389907837,0.06823474913835526,11.342530250549316
1713723963297328975,0.05965480953454971,0.10972223430871964,-0.09161274135112762,-0.8583213090896606,-2.4420857429504395,11.356895446777344
1713723963306328975,0.09054747968912125,0.03302319720387459,-0.006391586735844612,-3.9372646808624268,-4.99550199508667,9.503783226013184
1713723963316328975,0.15446333587169647,-0.023435818031430244,0.029827404767274857,-1.2940659523010254,-2.0913350582122803,8.725667953491211
1713723963326328975,0.1896170675754547,-0.012783173471689224,-0.023435818031430244,0.9074024558067322,1.5083470344543457,8.609549522399902
1713723963335328975,0.13528858125209808,0.013848437927663326,0.002130528911948204,0.6476315259933472,3.4093432426452637,7.639897346496582
1713723963344328975,0.00532632227987051,0.015978965908288956,-0.019174760207533836,0.08259996026754379,5.1367597579956055,8.81664752960205
1713723963354328975,-0.12676647305488586,0.009587380103766918,-0.020240023732185364,-0.3100491166114807,5.208585739135742,9.921571731567383
1713723963363328975,-0.2514024078845978,-0.006391586735844612,-0.022370552644133568,-0.43335050344467163,3.113659143447876,10.166976928710938
1713723963373328975,-0.22903186082839966,-0.05326322093605995,-0.02556634694337845,-1.7274165153503418,-1.8734627962112427,10.244789123535156
1713723963382328975,-0.12250541150569916,-0.11930961906909943,0.012783173471689224,-2.7664999961853027,-7.569268703460693,9.759963035583496
1713723963392328975,-0.029827404767274857,-0.09374327212572098,0.05752427875995636,1.2485761642456055,-5.760449409484863,11.139022827148438
1713723963401328975,0.08735168725252151,-0.002130528911948204,-0.03195793181657791,4.723759651184082,-1.1779471635818481,11.759121894836426
1713723963410328975,0.04580637067556381,0.092678003013134,-0.022370552644133568,3.1471781730651855,-0.5015852451324463,11.604695320129395
1713723963420328975,0.10546118021011353,0.08522115647792816,-0.08735168725252151,-1.137245774269104,-2.917334794998169,10.504559516906738
1713723963429328975,0.10333064943552017,0.02876213937997818,0.01810949482023716,-2.8838160037994385,-3.5230677127838135,8.689754486083984
1713723963440328975,0.185356006026268,-0.019174760207533836,-0.01065264455974102,-0.7805097699165344,-0.243011474609375,8.042123794555664
1713723963448328975,0.14487595856189728,-0.011717909015715122,-0.007456851191818714,0.0347159244120121,2.38462495803833,8.288725852966309
1713723963458328975,0.06711165606975555,-0.012783173471689224,-0.02130528911948204,-0.12928688526153564,4.338293552398682,9.230844497680664
1713723963467328975,-0.07350324839353561,-0.020240023732185364,-0.002130528911948204,-0.09935937076807022,4.881777286529541,9.838972091674805
1713723963477328975,-0.20133498311042786,-0.023435818031430244,-0.02876213937997818,0.20231004059314728,3.2788591384887695,10.448295593261719
1713723963486328975,-0.2045307755470276,-0.047936901450157166,-0.024501081556081772,-1.0462660789489746,-1.4101847410202026,10.663774490356445
1713723963496328975,-0.08948221057653427,-0.1161138266324997,-0.006391586735844612,-2.539050817489624,-7.217320919036865,9.520543098449707
1713723963505328975,0.00532632227987051,-0.092678003013134,0.055393751710653305,0.9660603404045105,-5.702988147735596,9.515754699707031
1713723963515328975,0.12889699637889862,-0.014913702383637428,-0.03621898964047432,4.3394904136657715,-0.629675030708313,10.371681213378906
1713723963524328975,0.07137271761894226,0.08202536404132843,-0.022370552644133568,3.2537200450897217,1.2557587623596191,11.00015926361084
1713723963533328975,-0.001065264455974102,0.11824434995651245,-0.055393751710653305,0.447715699672699,1.3682862520217896,12.27626895904541
1713723963543328975,0.04687163606286049,0.04048004746437073,-0.06178533658385277,-3.974374771118164,-2.5917232036590576,9.986215591430664
1713723963553328975,0.03515372797846794,-0.06072007119655609,0.04367584362626076,-3.778050184249878,-3.8474819660186768,8.111555099487305
1713723963562328975,0.14487595856189728,-0.10013485699892044,-0.008522115647792816,0.17836801707744598,-0.5566518902778625,7.971494197845459
1713723963571328975,0.09906959533691406,-0.06391586363315582,0.015978965908288956,1.8028337955474854,2.12485408782959,9.041702270507812
1713723963581328975,0.037284255027770996,-0.012783173471689224,-0.037284255027770996,2.2912509441375732,3.794809579849243,10.169371604919434
1713723963590328975,-0.08735168725252151,0.03941478580236435,-0.013848437927663326,1.702277421951294,3.597287893295288,9.769539833068848
1713723963600328975,-0.1757686287164688,0.05326322093605995,-0.05965480953454971,0.26815059781074524,1.8028337955474854,10.1753568649292
1713723963610328975,-0.09693906456232071,-0.014913702383637428,-0.0511326938867569,-3.111264944076538,-3.025073766708374,9.121908187866211
1713723963619328975,-0.07243797928094864,-0.0884169489145279,0.023435818031430244,-3.163937568664551,-5.064933776855469,8.977059364318848
1713723963628328975,0.02876213937997818,-0.09587380290031433,0.008522115647792816,1.2042834758758545,-1.6400281190872192,10.398017883300781
1713723963638328975,0.009587380103766918,-0.027696875855326653,0.00532632227987051,3.288435935974121,0.773327112197876,11.766304016113281
1713723963647328975,-0.02556634694337845,0.05006742849946022,-0.03834952041506767,2.6587610244750977,0.507570743560791,12.294225692749023
1713723963657328975,0.02876213937997818,0.03834952041506767,-0.04687163606286049,-1.6340426206588745,-3.5721487998962402,10.190918922424316
1713723963666328975,0.055393751710653305,-0.02876213937997818,0.006391586735844612,-3.0358476638793945,-5.542576789855957,8.57004451751709
1713723963676328975,0.17044231295585632,-0.052197955548763275,0.020240023732185364,0.3196259140968323,-1.8602946996688843,8.544905662536621
1713723963685328975,0.16298545897006989,-0.02130528911948204,-0.020240023732185364,1.7322049140930176,1.9716250896453857,9.121908187866211
1713723963695328975,0.09480853378772736,0.01810949482023716,-0.03302319720387459,1.40180504322052,4.174290657043457,9.362525939941406
1713723963704328975,-0.06178533658385277,0.03834952041506767,-0.02130528911948204,0.47405192255973816,4.748898983001709,9.870096206665039
1713723963714328975,-0.17896442115306854,0.027696875855326653,-0.047936901450157166,-0.4129997789859772,3.163937568664551,10.401609420776367
1713723963723328975,-0.16618125140666962,-0.02556634694337845,-0.02130528911948204,-2.1559786796569824,-1.0881646871566772,9.32421875
1713723963733328975,-0.11078750342130661,-0.10120011866092682,-0.003195793367922306,-2.474407434463501,-4.7153801918029785,8.676587104797363
1713723963742328975,-0.03834952041506767,-0.08948221057653427,0.05326322093605995,0.9852139949798584,-3.0154969692230225,9.976638793945312
1713723963752328975,0.006391586735844612,-0.020240023732185364,-0.015978965908288956,3.6619315147399902,-0.19033902883529663,11.413159370422363
1713723963761328975,-0.014913702383637428,0.06391586363315582,-0.001065264455974102,3.003525972366333,-0.31124621629714966,11.868057250976562
1713723963771328975,0.0511326938867569,0.06178533658385277,-0.05965480953454971,-1.5083470344543457,-3.91092848777771,11.192893028259277
1713723963780328975,0.0884169489145279,-0.004261057823896408,0.02130528911948204,-3.845087766647339,-5.91128396987915,9.519346237182617
1713723963790328975,0.1757686287164688,-0.055393751710653305,0.029827404767274857,-0.811634361743927,-2.036268472671509,9.046490669250488
1713723963799328975,0.185356006026268,-0.04367584362626076,-0.011717909015715122,1.380257248878479,1.7633295059204102,9.167398452758789
1713723963808328975,0.12889699637889862,0.001065264455974102,-0.00532632227987051,1.6627730131149292,3.5901052951812744,8.524555206298828
1713723963818328975,-0.011717909015715122,0.03621898964047432,-0.015978965908288956,1.2665326595306396,4.663904666900635,9.246406555175781
1713723963827328975,-0.12889699637889862,0.052197955548763275,-0.02130528911948204,0.49320554733276367,4.001908302307129,10.052055358886719
1713723963837328975,-0.20026971399784088,0.041545312851667404,-0.006391586735844612,-0.5650315880775452,1.5406687259674072,9.853337287902832
1713723963847328975,-0.1257012039422989,-0.03621898964047432,-0.024501081556081772,-2.9281086921691895,-3.068169355392456,8.74960994720459
1713723963856328975,-0.09693906456232071,-0.09587380290031433,0.06711165606975555,-2.1703438758850098,-4.507084846496582,8.80587387084961
1713723963865328975,0.00532632227987051,-0.08948221057653427,0.024501081556081772,2.146401882171631,-1.3850456476211548,10.26394271850586
1713723963875328975,-0.027696875855326653,0.002130528911948204,0.02130528911948204,3.995922565460205,0.6129156351089478,11.981781959533691
1713723963884328975,-0.044741105288267136,0.08415588736534119,-0.03302319720387459,1.9835960865020752,-0.4106055796146393,13.684059143066406
1713723963894328975,0.055393751710653305,0.03834952041506767,-0.047936901450157166,-3.5936965942382812,-6.260837554931641,11.371260643005371
1713723963903328975,0.09161274135112762,-0.04687163606286049,0.06072007119655609,-3.728969097137451,-7.313088893890381,8.860939979553223
1713723963912328975,0.25672873854637146,-0.07350324839353561,0.012783173471689224,1.037886381149292,-1.8471266031265259,7.908048152923584
1713723963922328975,0.22583605349063873,-0.020240023732185364,0.014913702383637428,2.7449522018432617,2.2637176513671875,8.591592788696289
1713723963931328975,0.18216021358966827,0.04261057823896408,-0.047936901450157166,1.9847931861877441,4.6471452713012695,8.42160415649414
1713723963941328975,0.0,0.06711165606975555,0.013848437927663326,0.1304839849472046,6.099228858947754,8.921992301940918
1713723963950328975,-0.15659387409687042,0.03941478580236435,-0.02876213937997818,-0.6775590777397156,5.792770862579346,10.266336441040039
1713723963961328975,-0.28442561626434326,0.020240023732185364,0.05006742849946022,-0.3232172131538391,3.087322950363159,9.692925453186035
1713723963969328975,-0.25672873854637146,-0.019174760207533836,-0.034088462591171265,-1.5095441341400146,-1.9704279899597168,9.84735107421875
1713723963979328975,-0.1342233121395111,-0.10013485699892044,0.044741105288267136,-2.93888258934021,-7.217320919036865,8.488641738891602
1713723963988328975,-0.04261057823896408,-0.10120011866092682,0.07776430249214172,1.2545616626739502,-4.802768707275391,9.674968719482422
1713723963998328975,0.0511326938867569,-0.003195793367922306,-0.00532632227987051,5.098452568054199,-0.014365210197865963,11.930306434631348
1713723964007328975,-0.009587380103766918,0.12357067316770554,-0.004261057823896408,4.126406669616699,0.9564835429191589,12.222399711608887
1713723964017328975,0.00532632227987051,0.13635385036468506,-0.06285060197114944,-1.423352837562561,-2.5905261039733887,12.814964294433594
1713723964026328975,0.10013485699892044,0.007456851191818714,-0.008522115647792816,-6.403292179107666,-8.310274124145508,10.049661636352539
1713723964036328975,0.16085493564605713,-0.07030745595693588,0.07989483326673508,-2.6611552238464355,-4.891354084014893,8.858546257019043
1713723964045328975,0.30360037088394165,-0.0884169489145279,-0.022370552644133568,1.8016366958618164,1.1731587648391724,8.20612621307373
1713723964055328975,0.2130528837442398,-0.03195793181657791,0.01810949482023716,2.032677173614502,3.818751573562622,7.475894451141357
1713723964064328975,0.07669904083013535,0.00532632227987051,-0.04261057823896408,1.3658920526504517,6.271611213684082,9.513360023498535
1713723964074328975,-0.09054747968912125,0.029827404767274857,0.01065264455974102,0.629675030708313,6.3302693367004395,9.750386238098145
1713723964083328975,-0.24288028478622437,0.026631610468029976,-0.019174760207533836,0.5327098965644836,4.121618270874023,9.337386131286621
1713723964093328975,-0.3014698326587677,0.04048004746437073,0.017044231295585632,1.039083480834961,1.0546457767486572,8.96628475189209
1713723964102328975,-0.1949433982372284,0.008522115647792816,-0.04261057823896408,-1.4401123523712158,-4.071340084075928,9.10993766784668
1713723964112328975,-0.10439591109752655,-0.05326322093605995,0.03302319720387459,-3.0190882682800293,-7.225700378417969,9.60912799835205
1713723964121328975,-0.014913702383637428,-0.0511326938867569,0.049002163112163544,1.0498573780059814,-3.1747114658355713,12.233173370361328
1713723964130328975,0.009587380103766918,0.011717909015715122,-0.011717909015715122,3.311180830001831,-0.05506663769483566,14.020444869995117
1713723964141328975,0.05965480953454971,0.02876213937997818,-0.05006742849946022,-0.5662286877632141,-4.0294413566589355,11.899182319641113
1713723964149328975,0.11504855751991272,-0.019174760207533836,0.007456851191818714,-2.912546396255493,-7.376535415649414,9.157821655273438
1713723964159328975,0.2173139452934265,-0.041545312851667404,0.030892668291926384,0.20949263870716095,-3.560177803039551,9.033323287963867
1713723964168328975,0.2929477095603943,-0.01065264455974102,-0.015978965908288956,2.691082715988159,1.278503656387329,8.616731643676758
1713723964178328975,0.2364886999130249,0.05752427875995636,-0.02556634694337845,1.9261351823806763,3.9624037742614746,7.103596210479736
1713723964187328975,0.07137271761894226,0.07456851005554199,-0.022370552644133568,0.09217676520347595,6.520608425140381,8.698134422302246
1713723964197328975,-0.09587380290031433,0.04687163606286049,-0.022370552644133568,-1.1061211824417114,7.086836814880371,9.974244117736816
1713723964206328975,-0.2641855776309967,0.006391586735844612,0.015978965908288956,-1.0678139925003052,4.8255133628845215,9.587580680847168
1713723964216328975,-0.3281014561653137,-0.02130528911948204,-0.013848437927663326,-0.608127236366272,0.9576806426048279,10.080785751342773
1713723964225328975,-0.19387812912464142,-0.09480853378772736,-0.019174760207533836,-2.7772738933563232,-5.543774127960205,8.887276649475098
1713723964235328975,-0.13102751970291138,-0.13209278881549835,0.0649811327457428,-1.1779471635818481,-7.321468830108643,9.744400978088379
1713723964244328975,0.015978965908288956,-0.06711165606975555,0.017044231295585632,4.410119533538818,-2.8431143760681152,12.102689743041992
1713723964253328975,0.00532632227987051,0.07243797928094864,-0.009587380103766918,5.032611846923828,-0.8439561128616333,13.26986312866211
1713723964263328975,0.10013485699892044,0.11717908829450607,-0.08309062570333481,-0.3315969407558441,-4.423287391662598,12.345701217651367
1713723964273328975,0.1576591432094574,0.05645901337265968,0.020240023732185364,-4.091690540313721,-7.386112213134766,9.034520149230957
1713723964282328975,0.24820661544799805,-0.006391586735844612,0.030892668291926384,-1.6412252187728882,-2.847902774810791,8.787917137145996
1713723964292328975,0.287621408700943,-0.027696875855326653,0.009587380103766918,0.7146691679954529,2.3762452602386475,8.537723541259766
1713723964301328975,0.21092236042022705,-0.001065264455974102,0.0,0.8906430006027222,4.853046894073486,7.486668586730957
1713723964311328975,0.044741105288267136,0.01065264455974102,-0.004261057823896408,0.4129997789859772,6.750451564788818,8.23006820678711
1713723964320328975,-0.12676647305488586,0.01065264455974102,0.004261057823896408,0.2885012924671173,6.920439720153809,9.260771751403809
1713723964329328975,-0.28549087047576904,0.012783173471689224,0.003195793367922306,0.5386953949928284,4.630385875701904,9.692925453186035
1713723964339328975,-0.3472762107849121,0.019174760207533836,0.003195793367922306,0.812831461429596,1.1731587648391724,9.84735107421875
1713723964348328975,-0.2045307755470276,-0.030892668291926384,-0.037284255027770996,-2.474407434463501,-5.507861137390137,9.081207275390625
1713723964358328975,-0.12357067316770554,-0.10013485699892044,0.05645901337265968,-3.008314371109009,-9.038111686706543,9.99220085144043
1713723964368328975,0.01810949482023716,-0.07137271761894226,0.04580637067556381,3.242946147918701,-4.055777549743652,12.600683212280273
1713723964377328975,0.05006742849946022,0.05006742849946022,-0.00532632227987051,5.413290023803711,-0.272938996553421,12.969390869140625
1713723964386328975,0.05326322093605995,0.14594122767448425,-0.052197955548763275,2.0374655723571777,-1.5634137392044067,11.994950294494629
1713723964396328975,0.1395496428012848,0.10972223430871964,-0.0511326938867569,-3.448847532272339,-5.351040840148926,9.188945770263672
1713723964405328975,0.15872439742088318,0.026631610468029976,0.03621898964047432,-3.8151602745056152,-3.7684733867645264,8.462306022644043
1713723964414328975,0.2556634545326233,-0.04367584362626076,0.004261057823896408,-0.547075092792511,1.5059528350830078,8.224082946777344
1713723964425328975,0.15233281254768372,-0.04580637067556381,0.015978965908288956,0.4129997789859772,4.431667327880859,7.9846625328063965
1713723964433328975,0.029827404767274857,-0.027696875855326653,-0.023435818031430244,0.9612719416618347,5.995080947875977,9.080009460449219
1713723964443328975,-0.13635385036468506,-0.004261057823896408,0.01065264455974102,1.036689281463623,5.531803131103516,9.422380447387695
1713723964453328975,-0.2514024078845978,0.014913702383637428,-0.030892668291926384,1.260547161102295,3.330334424972534,9.801861763000488
1713723964462328975,-0.2908172011375427,0.03515372797846794,0.008522115647792816,0.652419924736023,-0.013168109580874443,10.176553726196289
1713723964472328975,-0.13741911947727203,-0.022370552644133568,-0.06604639440774918,-2.6635494232177734,-6.071695327758789,9.696516990661621
1713723964481328975,-0.07989483326673508,-0.07456851005554199,0.07776430249214172,-2.0602104663848877,-7.577648162841797,9.81143856048584
1713723964490328975,0.05326322093605995,-0.04580637067556381,-0.001065264455974102,2.9544448852539062,-2.3523030281066895,11.872845649719238
1713723964500328975,0.030892668291926384,0.058589544147253036,0.006391586735844612,3.9588124752044678,0.18794482946395874,12.621033668518066
1713723964509328975,0.06604639440774918,0.10759171098470688,-0.07669904083013535,0.4967968463897705,-1.9596540927886963,11.864466667175293
1713723964519328975,0.12463594228029251,0.049002163112163544,-0.023435818031430244,-3.957615375518799,-5.56173038482666,9.165003776550293
1713723964528328975,0.1619201898574829,-0.02876213937997818,0.027696875855326653,-2.8850131034851074,-2.9676129817962646,8.718484878540039
1713723964538328975,0.2322276532649994,-0.07030745595693588,-0.012783173471689224,0.5746083855628967,1.7597382068634033,8.383296966552734
1713723964547328975,0.1438107043504715,-0.037284255027770996,-0.002130528911948204,1.4089876413345337,3.951629877090454,8.019378662109375
1713723964557328975,0.02556634694337845,-0.003195793367922306,-0.04367584362626076,1.4389152526855469,5.449203014373779,9.034520149230957
1713723964566328975,-0.11717908829450607,0.027696875855326653,-0.003195793367922306,1.0211269855499268,5.1152119636535645,9.345766067504883
1713723964576328975,-0.22583605349063873,0.04261057823896408,-0.03195793181657791,0.6643909811973572,3.2597055435180664,9.431957244873047
1713723964585328975,-0.25672873854637146,0.04580637067556381,0.001065264455974102,-0.3519476354122162,0.304063618183136,9.801861763000488
1713723964595328975,-0.13315805792808533,-0.02876213937997818,-0.044741105288267136,-3.509899616241455,-4.869806289672852,9.30386734008789
1713723964604328975,-0.1022653877735138,-0.09161274135112762,0.08096009492874146,-2.469619035720825,-5.517437934875488,10.080785751342773
1713723964614328975,0.01065264455974102,-0.07563377171754837,0.02130528911948204,2.558204412460327,-1.2761094570159912,11.856086730957031
1713723964623328975,-0.03834952041506767,0.030892668291926384,0.03515372797846794,4.028244495391846,0.038307227194309235,12.441469192504883
1713723964634146917,0.0511326938867569,0.07776430249214172,-0.04687163606286049,0.12928688526153564,-3.757699489593506,11.889605522155762
1713723964643146917,0.11824434995651245,0.034088462591171265,0.026631610468029976,-3.663128614425659,-7.508216381072998,8.914810180664062
1713723964653146917,0.20772656798362732,-0.012783173471689224,0.07350324839353561,-1.4664485454559326,-3.3626561164855957,8.890868186950684
1713723964662146917,0.2727077007293701,-0.01810949482023716,0.017044231295585632,1.139639973640442,2.116474151611328,8.81664752960205
1713723964671146917,0.18429075181484222,0.024501081556081772,0.04048004746437073,1.0103530883789062,4.896142482757568,7.680598735809326
1713723964681146917,0.012783173471689224,0.03941478580236435,0.012783173471689224,0.2346317619085312,6.956352710723877,8.803479194641113
1713723964691146917,-0.16298545897006989,0.03515372797846794,0.037284255027770996,-0.3842693567276001,6.641515254974365,9.555258750915527
1713723964700146917,-0.30786141753196716,0.015978965908288956,0.03621898964047432,-0.5207388401031494,3.954024076461792,9.714472770690918
1713723964709146917,-0.30360037088394165,-0.023435818031430244,0.03515372797846794,-1.7561469078063965,-1.114500880241394,10.491392135620117
1713723964719146917,-0.17044231295585632,-0.12144014239311218,0.049002163112163544,-3.860650062561035,-7.526173114776611,9.218873023986816
1713723964728146917,-0.09800432622432709,-0.12783172726631165,0.14594122767448425,0.4297592043876648,-6.294356346130371,10.11909294128418
1713723964738146917,0.03941478580236435,-0.034088462591171265,0.04048004746437073,5.458779811859131,-1.2270283699035645,12.36724853515625
1713723964747146917,-0.004261057823896408,0.10333064943552017,0.05432848632335663,4.262876033782959,-0.7493851184844971,12.800599098205566
1713723964757146917,0.10333064943552017,0.10865697264671326,-0.03941478580236435,-1.5071499347686768,-5.21097993850708,11.4849853515625
1713723964766146917,0.14061491191387177,0.034088462591171265,0.09054747968912125,-4.158728122711182,-6.9695210456848145,8.652645111083984
1713723964776146917,0.26631611585617065,-0.02556634694337845,0.05965480953454971,-0.8774749040603638,-1.600523829460144,8.106766700744629
1713723964785146917,0.24288028478622437,-0.02556634694337845,0.052197955548763275,0.8738836050033569,3.0573954582214355,8.453926086425781
1713723964795146917,0.15872439742088318,0.007456851191818714,0.04048004746437073,0.9588777422904968,5.536591529846191,8.2312650680542
1713723964805146917,-0.02876213937997818,0.027696875855326653,0.05006742849946022,0.4141968786716461,6.774393558502197,8.905233383178711
1713723964813146917,-0.18855179846286774,0.02876213937997818,0.04687163606286049,0.09696516394615173,5.8657941818237305,9.805453300476074
1713723964823146917,-0.3099919557571411,0.026631610468029976,0.07563377171754837,0.26815059781074524,2.955641984939575,9.637858390808105
1713723964833146917,-0.27164241671562195,0.0,0.03195793181657791,-1.3958195447921753,-2.121262788772583,10.255562782287598
1713723964842146917,-0.13741911947727203,-0.09693906456232071,0.06285060197114944,-4.0330328941345215,-8.099584579467773,9.282320022583008
1713723964851146917,-0.06604639440774918,-0.12250541150569916,0.12676647305488586,0.1735796183347702,-5.728127479553223,11.162964820861816
1713723964861146917,0.052197955548763275,-0.047936901450157166,0.027696875855326653,5.064933776855469,-0.6643909811973572,12.72877311706543
1713723964870146917,-0.008522115647792816,0.06178533658385277,0.01810949482023716,4.703409194946289,-0.7876923680305481,11.81299114227295
1713723964880146917,0.09161274135112762,0.092678003013134,-0.06285060197114944,0.5734112858772278,-4.790797710418701,10.471040725708008
1713723964890146917,0.14168016612529755,0.06711165606975555,0.01065264455974102,-2.4193408489227295,-6.220135688781738,8.265981674194336
1713723964899146917,0.27590349316596985,0.012783173471689224,0.00532632227987051,-0.6619967818260193,-1.2509703636169434,7.644685745239258
1713723964908146917,0.22583605349063873,0.002130528911948204,-0.019174760207533836,0.4034229815006256,3.627215623855591,8.53652572631836
1713723964918146917,0.10759171098470688,0.007456851191818714,-0.022370552644133568,0.38786065578460693,6.566098213195801,9.454702377319336
1713723964927146917,-0.10759171098470688,0.004261057823896408,-0.019174760207533836,0.34356793761253357,7.0557122230529785,10.032901763916016
1713723964937146917,-0.26738137006759644,0.003195793367922306,-0.030892668291926384,0.5710170865058899,4.525041103363037,10.230423927307129
1713723964946146917,-0.30360037088394165,0.0,-0.011717909015715122,-0.5781996846199036,-0.4908113479614258,10.216058731079102
1713723964956146917,-0.1342233121395111,-0.0788295716047287,-0.055393751710653305,-3.5182793140411377,-7.493851184844971,8.910021781921387
1713723964965146917,-0.06604639440774918,-0.11291802674531937,0.08415588736534119,-0.8044517636299133,-7.265204906463623,9.314641952514648
1713723964975146917,0.09480853378772736,-0.05752427875995636,-0.03941478580236435,4.273650169372559,-1.301248550415039,11.390414237976074
1713723964984146917,0.03302319720387459,0.06178533658385277,-0.009587380103766918,4.570530891418457,0.812831461429596,12.391190528869629
1713723964994146917,0.004261057823896408,0.14061491191387177,-0.07776430249214172,2.276885747909546,-0.07781155407428741,12.504915237426758
1713723965003146917,0.09480853378772736,0.11824434995651245,-0.058589544147253036,-2.867056369781494,-4.620809078216553,9.060855865478516
1713723965012146917,0.11185276508331299,0.04367584362626076,0.015978965908288956,-3.9205052852630615,-4.541800498962402,7.405265808105469
1713723965022146917,0.22370553016662598,-0.022370552644133568,0.001065264455974102,-1.2653355598449707,0.5793967843055725,7.629123687744141
1713723965032146917,0.12676647305488586,-0.037284255027770996,0.020240023732185364,-0.27054479718208313,4.261679172515869,9.29309368133545
1713723965041146917,0.008522115647792816,-0.024501081556081772,-0.014913702383637428,0.6883329749107361,6.064512729644775,10.449493408203125
1713723965050146917,-0.15978966653347015,0.008522115647792816,0.013848437927663326,1.0247182846069336,4.845864295959473,9.640253067016602
1713723965060146917,-0.260989785194397,0.027696875855326653,-0.026631610468029976,0.8008604645729065,1.8519150018692017,9.513360023498535
1713723965069146917,-0.14594122767448425,-0.014913702383637428,-0.02130528911948204,-2.6216509342193604,-4.236539840698242,8.832209587097168
1713723965079146917,-0.08628641813993454,-0.08096009492874146,0.041545312851667404,-3.1208419799804688,-6.756437301635742,9.08838939666748
1713723965088146917,0.04687163606286049,-0.07989483326673508,0.04048004746437073,1.7705121040344238,-2.298433542251587,10.51413631439209
1713723965098146917,0.023435818031430244,-0.003195793367922306,0.01065264455974102,3.8774096965789795,1.1755529642105103,12.463016510009766
1713723965107146917,-0.027696875855326653,0.07563377171754837,-0.024501081556081772,3.3470938205718994,1.2892775535583496,12.18648624420166
1713723965117146917,-0.014913702383637428,0.08522115647792816,-0.02876213937997818,-0.730231523513794,-3.021482467651367,10.779892921447754
1713723965127146917,0.07030745595693588,0.009587380103766918,-0.017044231295585632,-4.078522682189941,-7.237671852111816,8.71609115600586
1713723965135146917,0.1672465205192566,-0.029827404767274857,0.06924218684434891,-1.4437036514282227,-3.623624324798584,8.458714485168457
1713723965145146917,0.2364886999130249,-0.037284255027770996,-0.037284255027770996,1.4760253429412842,2.036268472671509,9.182960510253906
1713723965154146917,0.13848437368869781,0.011717909015715122,0.019174760207533836,1.6340426206588745,4.788403511047363,8.80587387084961
1713723965164146917,-0.03941478580236435,0.04367584362626076,-0.044741105288267136,0.9900023937225342,6.14950704574585,10.392032623291016
1713723965173146917,-0.18002969026565552,0.052197955548763275,-0.009587380103766918,0.272938996553421,4.529829502105713,10.072406768798828
1713723965184146917,-0.25672873854637146,0.04048004746437073,-0.002130528911948204,-0.6045359373092651,1.0450689792633057,9.97065258026123
1713723965192146917,-0.13209278881549835,-0.029827404767274857,-0.04687163606286049,-3.5901052951812744,-4.677073001861572,8.668207168579102
1713723965202146917,-0.09161274135112762,-0.09800432622432709,0.0884169489145279,-2.715024709701538,-5.87776517868042,8.63708209991455
1713723965211146917,0.034088462591171265,-0.09374327212572098,0.001065264455974102,2.3247697353363037,-1.4185644388198853,10.795454978942871
1713723965221146917,-0.004261057823896408,0.0,0.03195793181657791,3.7672762870788574,0.9684545993804932,11.906364440917969
1713723965230146917,-0.05006742849946022,0.06924218684434891,-0.05006742849946022,2.9963433742523193,0.545877993106842,12.72877311706543
1713723965240146917,0.01810949482023716,0.06924218684434891,-0.030892668291926384,-1.2282254695892334,-4.169502258300781,10.268731117248535
1713723965249146917,0.06924218684434891,0.023435818031430244,0.009587380103766918,-2.9664158821105957,-6.586448669433594,7.923610210418701
1713723965259146917,0.1992044448852539,0.0,0.03515372797846794,-0.02753331884741783,-2.1799206733703613,8.359354972839355
1713723965268146917,0.19600865244865417,0.009587380103766918,-0.004261057823896408,1.1049240827560425,2.6623523235321045,9.3828763961792
1713723965278146917,0.10439591109752655,0.037284255027770996,-0.007456851191818714,0.910993754863739,5.258863925933838,9.385270118713379
1713723965287146917,-0.08415588736534119,0.052197955548763275,0.001065264455974102,0.1364694982767105,5.91248083114624,9.882067680358887
1713723965297146917,-0.222640261054039,0.034088462591171265,-0.03515372797846794,-0.4692635238170624,3.9264907836914062,10.20648193359375
1713723965306146917,-0.2322276532649994,-0.004261057823896408,0.014913702383637428,-1.9345149993896484,-0.7649474143981934,9.965864181518555
1713723965316146917,-0.12357067316770554,-0.09161274135112762,-0.02556634694337845,-3.750516891479492,-5.9519853591918945,8.678980827331543
1713723965325146917,-0.06072007119655609,-0.11291802674531937,0.09054747968912125,-0.5207388401031494,-4.558559894561768,9.522936820983887
1713723965335146917,0.034088462591171265,-0.06604639440774918,-0.02556634694337845,3.5853168964385986,-0.2561795711517334,11.456254959106445
1713723965344146917,-0.023435818031430244,0.03302319720387459,0.012783173471689224,3.73016619682312,0.5853822827339172,11.559206008911133
1713723965354146917,-0.023435818031430244,0.07669904083013535,-0.06604639440774918,1.259350061416626,-1.6795324087142944,12.314576148986816
1713723965363146917,0.06391586363315582,0.041545312851667404,-0.01810949482023716,-2.412158250808716,-6.1937994956970215,10.012551307678223
1713723965372146917,0.12463594228029251,0.023435818031430244,0.06072007119655609,-1.334767460823059,-4.371812343597412,8.508993148803711
1713723965382146917,0.24288028478622437,0.020240023732185364,-0.029827404767274857,1.0259153842926025,0.7206547260284424,7.7763671875
1713723965391146917,0.148071750998497,0.03834952041506767,0.029827404767274857,0.32202011346817017,3.822342872619629,8.285135269165039
1713723965401146917,0.003195793367922306,0.029827404767274857,-0.030892668291926384,-0.3890577554702759,6.156689643859863,10.753557205200195
1713723965410146917,-0.15659387409687042,0.006391586735844612,0.006391586735844612,-0.711077868938446,5.169081211090088,10.339360237121582
1713723965420146917,-0.26631611585617065,-0.023435818031430244,-0.009587380103766918,-0.2992752194404602,1.9213467836380005,9.289502143859863
1713723965429146917,-0.18322548270225525,-0.06072007119655609,-0.006391586735844612,-1.2892775535583496,-3.6559460163116455,8.638279914855957
1713723965439146917,-0.09800432622432709,-0.07137271761894226,0.03941478580236435,-1.1432312726974487,-6.511031627655029,8.586804389953613
1713723965448146917,0.014913702383637428,-0.034088462591171265,0.026631610468029976,2.1990742683410645,-2.9089550971984863,10.502165794372559
1713723965458146917,0.03302319720387459,0.041545312851667404,-0.01065264455974102,3.4177229404449463,0.4596867263317108,12.24155330657959
1713723965467146917,-0.014913702383637428,0.08948221057653427,-0.04048004746437073,1.4520833492279053,0.4908113479614258,12.558784484863281
1713723965477146917,0.034088462591171265,0.037284255027770996,-0.06072007119655609,-2.8586766719818115,-3.70742130279541,11.05522632598877
1713723965486146917,0.049002163112163544,-0.03515372797846794,0.034088462591171265,-3.0406360626220703,-5.398924827575684,9.029731750488281
1713723965495146917,0.17257283627986908,-0.04687163606286049,0.007456851191818714,0.9923965930938721,-1.7573440074920654,8.3892822265625
1713723965506146917,0.17470337450504303,0.009587380103766918,-0.013848437927663326,2.232593059539795,1.48081374168396,8.481459617614746
1713723965514146917,0.12676647305488586,0.055393751710653305,-0.02876213937997818,1.4113818407058716,4.000710964202881,8.531737327575684
1713723965524146917,-0.027696875855326653,0.07243797928094864,-0.01810949482023716,-0.009576806798577309,5.657498359680176,9.305065155029297
1713723965533146917,-0.1810949593782425,0.047936901450157166,-0.03515372797846794,-1.1528080701828003,5.0697221755981445,10.429141998291016
1713723965543146917,-0.27164241671562195,-0.003195793367922306,0.002130528911948204,-1.944091796875,1.6184803247451782,10.690110206604004
1713723965553146917,-0.1672465205192566,-0.092678003013134,-0.017044231295585632,-3.469198226928711,-4.920084476470947,9.329007148742676
1713723965562146917,-0.10333064943552017,-0.12250541150569916,0.08415588736534119,-1.1552022695541382,-6.664260387420654,8.620323181152344
1713723965572146917,0.04687163606286049,-0.07030745595693588,0.01065264455974102,3.600879192352295,-2.206256866455078,9.914388656616211
1713723965581146917,0.020240023732185364,0.04367584362626076,0.002130528911948204,4.288015365600586,0.7338228225708008,11.657367706298828
1713723965591146917,-0.027696875855326653,0.1161138266324997,-0.05326322093605995,2.412158250808716,1.1863269805908203,12.824541091918945
1713723965600146917,0.007456851191818714,0.07669904083013535,-0.05965480953454971,-2.7904419898986816,-3.072957754135132,10.972625732421875
1713723965609146917,0.030892668291926384,-0.024501081556081772,0.020240023732185364,-4.199429512023926,-6.31829833984375,8.93156909942627
1713723965619146917,0.1395496428012848,-0.05006742849946022,0.03834952041506767,0.41778817772865295,-2.942473888397217,9.137470245361328
1713723965628146917,0.1906823366880417,-0.004261057823896408,-0.012783173471689224,2.431311845779419,0.954089343547821,8.913612365722656
1713723965638146917,0.1533980816602707,0.05006742849946022,-0.019174760207533836,1.9285293817520142,3.132812976837158,7.757213592529297
1713723965648146917,0.01065264455974102,0.08202536404132843,-0.011717909015715122,0.6464344263076782,5.251681327819824,9.095572471618652
1713723965657146917,-0.12783172726631165,0.07243797928094864,-0.0511326938867569,-0.7613561153411865,5.430049419403076,10.36569595336914
1713723965666146917,-0.2460760921239853,0.03515372797846794,-0.001065264455974102,-1.6328455209732056,3.157952070236206,9.806650161743164
1713723965675146917,-0.21518342196941376,-0.052197955548763275,-0.034088462591171265,-3.4608185291290283,-2.183511972427368,9.616311073303223
1713723965685146917,-0.1395496428012848,-0.13209278881549835,0.049002163112163544,-3.4739866256713867,-6.539762020111084,9.188945770263672
1713723965694146917,-0.047936901450157166,-0.11717908829450607,0.052197955548763275,1.5083470344543457,-3.931279182434082,10.799046516418457
1713723965704146917,0.03195793181657791,-0.022370552644133568,-0.017044231295585632,4.717774391174316,-0.5219359397888184,11.297040939331055
1713723965713146917,-0.00532632227987051,0.07989483326673508,-0.022370552644133568,3.7026329040527344,-0.04189852997660637,10.650606155395508
1713723965723146917,0.011717909015715122,0.10333064943552017,-0.07137271761894226,0.004788403399288654,-1.8626888990402222,11.481393814086914
1713723965732146917,0.058589544147253036,0.04048004746437073,-0.01810949482023716,-3.290830135345459,-4.6291890144348145,10.092757225036621
1713723965742146917,0.09480853378772736,-0.006391586735844612,0.04048004746437073,-1.4628572463989258,-2.5103204250335693,9.568427085876465
1713723965751146917,0.15446333587169647,-0.008522115647792816,-0.02876213937997818,0.7996633648872375,0.8463503122329712,8.83819580078125
1713723965761146917,0.1022653877735138,0.011717909015715122,0.004261057823896408,0.5051765441894531,2.3104045391082764,8.036137580871582
1713723965770146917,0.008522115647792816,0.013848437927663326,-0.027696875855326653,0.023942016065120697,3.7816414833068848,9.305065155029297
1713723965780146917,-0.08948221057653427,0.011717909015715122,-0.02556634694337845,-0.4405331015586853,3.859452962875366,9.634267807006836
1713723965789146917,-0.17789916694164276,-0.006391586735844612,-0.019174760207533836,-0.7709329128265381,2.434903144836426,9.515754699707031
1713723965799146917,-0.19813919067382812,-0.03195793181657791,-0.02130528911948204,-1.0905588865280151,-0.12210428714752197,9.915586471557617
1713723965808146917,-0.1257012039422989,-0.07456851005554199,-0.014913702383637428,-2.0434510707855225,-3.669114112854004,9.653421401977539
1713723965818146917,-0.092678003013134,-0.09374327212572098,0.024501081556081772,-0.7338228225708008,-3.9157168865203857,10.461463928222656
1713723965827146917,-0.03515372797846794,-0.0649811327457428,0.002130528911948204,2.3953988552093506,-1.4736311435699463,11.777077674865723
1713723965837146917,-0.013848437927663326,-0.01810949482023716,-0.03621898964047432,2.4612393379211426,-2.388216257095337,12.264298439025879
1713723965846146917,0.05432848632335663,0.004261057823896408,-0.024501081556081772,0.6177040338516235,-5.297171115875244,11.2467622756958
1713723965855146917,0.11078750342130661,0.03621898964047432,0.012783173471689224,1.3120225667953491,-4.459200382232666,9.59596061706543
1713723965865146917,0.2130528837442398,0.08948221057653427,-0.03302319720387459,2.205059766769409,-1.313219666481018,8.38688850402832
1713723965874146917,0.2045307755470276,0.12250541150569916,-0.030892668291926384,0.2214636504650116,1.1504138708114624,7.833827972412109
1713723965885146917,0.14168016612529755,0.08415588736534119,-0.03195793181657791,-2.097320556640625,3.7900211811065674,8.646658897399902
1713723965893146917,0.014913702383637428,0.013848437927663326,-0.01810949482023716,-3.087322950363159,5.400121688842773,9.194931030273438
1713723965903146917,-0.13741911947727203,-0.06178533658385277,-0.012783173471689224,-2.5498247146606445,5.035006046295166,9.955090522766113
1713723965913146917,-0.23435817658901215,-0.09906959533691406,-0.001065264455974102,-0.8774749040603638,2.6396074295043945,9.751583099365234
1713723965922146917,-0.24820661544799805,-0.09480853378772736,0.007456851191818714,0.5231330394744873,-0.5889735817909241,9.32421875
1713723965931146917,-0.14594122767448425,-0.08096009492874146,-0.014913702383637428,0.325611412525177,-4.357447147369385,9.155426979064941
1713723965941146917,-0.0788295716047287,-0.05432848632335663,0.012783173471689224,0.5159504413604736,-5.230133533477783,10.255562782287598
1713723965950146917,-0.012783173471689224,-0.012783173471689224,-0.01065264455974102,2.0422539710998535,-2.4157495498657227,12.568361282348633
1713723965960146917,0.029827404767274857,0.014913702383637428,-0.04048004746437073,1.422155737876892,-2.227804660797119,12.962207794189453
1713723965970146917,0.06817692518234253,0.006391586735844612,-0.022370552644133568,-0.44651859998703003,-4.707000255584717,11.21204662322998
1713723965979146917,0.10759171098470688,0.017044231295585632,0.02556634694337845,0.9026139974594116,-3.912125587463379,9.75397777557373
1713723965988146917,0.2045307755470276,0.07137271761894226,-0.020240023732185364,2.383427858352661,-1.1982979774475098,8.378508567810059
1713723965997146917,0.20985709130764008,0.11930961906909943,-0.027696875855326653,0.4967968463897705,0.8870517015457153,7.42681360244751
1713723966007146917,0.15659387409687042,0.08522115647792816,-0.027696875855326653,-2.093729257583618,3.5386300086975098,7.835024833679199
1713723966016146917,0.03302319720387459,0.009587380103766918,-0.014913702383637428,-3.223792552947998,5.582081317901611,8.701725959777832
1713723966027146917,-0.12357067316770554,-0.06711165606975555,-0.008522115647792816,-2.6862943172454834,5.7987565994262695,9.670180320739746
1713723966036146917,-0.2460760921239853,-0.11078750342130661,0.004261057823896408,-0.9217676520347595,3.7409400939941406,9.75637149810791
1713723966045146917,-0.2972087860107422,-0.09906959533691406,0.022370552644133568,1.260547161102295,0.652419924736023,9.257181167602539
1713723966055146917,-0.20133498311042786,-0.08202536404132843,-0.020240023732185364,0.5410895943641663,-4.294000625610352,9.87967300415039
1713723966064146917,-0.08948221057653427,-0.07989483326673508,0.013848437927663326,-1.1468225717544556,-8.125920295715332,11.307814598083496
1713723966074146917,0.004261057823896408,-0.05432848632335663,0.03515372797846794,1.434126853942871,-5.254075527191162,12.635398864746094
1713723966083146917,0.07243797928094864,0.004261057823896408,-0.020240023732185364,4.191050052642822,-1.4915876388549805,12.306196212768555
1713723966092146917,0.09374327212572098,0.07137271761894226,-0.04580637067556381,2.5677812099456787,-2.428917646408081,10.797849655151367
1713723966102146917,0.13635385036468506,0.09161274135112762,-0.030892668291926384,-0.0586579404771328,-3.800795078277588,9.29309368133545
1713723966111146917,0.1768338978290558,0.092678003013134,0.001065264455974102,-0.6141127347946167,-1.6795324087142944,8.708908081054688
1713723966121146917,0.20985709130764008,0.07137271761894226,-0.04261057823896408,-1.1767500638961792,1.2904746532440186,8.38569164276123
1713723966130146917,0.148071750998497,0.022370552644133568,-0.002130528911948204,-2.365471124649048,3.35786771774292,7.773972988128662
1713723966140146917,0.023435818031430244,-0.041545312851667404,-0.006391586735844612,-2.361879825592041,5.129577159881592,8.949525833129883
1713723966149146917,-0.10439591109752655,-0.08096009492874146,-0.00532632227987051,-1.157596468925476,5.172672748565674,9.5624418258667
1713723966158146917,-0.222640261054039,-0.08415588736534119,0.013848437927663326,0.4908113479614258,3.265691041946411,9.5408935546875
1713723966168146917,-0.2695119082927704,-0.047936901450157166,-0.003195793367922306,1.8160020112991333,0.5829880833625793,9.607931137084961
1713723966178146917,-0.16298545897006989,-0.041545312851667404,-0.024501081556081772,-0.5446808934211731,-4.5190558433532715,10.328585624694824
1713723966187146917,-0.06391586363315582,-0.08096009492874146,0.00532632227987051,-2.677914619445801,-8.419210433959961,11.584344863891602
1713723966197146917,0.02556634694337845,-0.07456851005554199,0.05645901337265968,1.0821791887283325,-4.910507678985596,12.678494453430176
1713723966206146917,0.10013485699892044,-0.012783173471689224,-0.030892668291926384,4.4292731285095215,-1.1707645654678345,11.705251693725586
1713723966216146917,0.08735168725252151,0.08735168725252151,-0.01065264455974102,3.799597978591919,-1.2006921768188477,9.604339599609375
1713723966225146917,0.1342233121395111,0.1299622654914856,-0.0511326938867569,0.871489405632019,-2.122459888458252,8.947131156921387
1713723966234146917,0.15659387409687042,0.12889699637889862,-0.013848437927663326,-2.055422067642212,-1.3910311460494995,8.486248016357422
1713723966244146917,0.1757686287164688,0.0511326938867569,-0.011717909015715122,-3.272873640060425,1.4832079410552979,8.165424346923828
1713723966254146917,0.10013485699892044,-0.04261057823896408,0.012783173471689224,-3.1699230670928955,3.869029998779297,8.56765079498291
1713723966263146917,-0.023435818031430244,-0.10546118021011353,0.01065264455974102,-1.698686122894287,5.151124954223633,9.459490776062012
1713723966272146917,-0.16298545897006989,-0.11717908829450607,0.011717909015715122,0.4644751250743866,4.436455726623535,9.99220085144043
1713723966282146917,-0.24501082301139832,-0.07776430249214172,0.00532632227987051,2.427720546722412,1.9177554845809937,9.658209800720215
1713723966292146917,-0.23861923813819885,-0.01065264455974102,-0.003195793367922306,2.2218191623687744,-1.8088194131851196,10.621875762939453
1713723966301146917,-0.07137271761894226,-0.017044231295585632,-0.05326322093605995,-1.502361536026001,-7.259219646453857,10.281899452209473
1713723966310146917,-0.007456851191818714,-0.03941478580236435,0.052197955548763275,-1.6843209266662598,-6.957550048828125,10.382455825805664
1713723966320146917,0.10759171098470688,-0.03302319720387459,-0.011717909015715122,1.9500772953033447,-1.4197615385055542,11.569979667663574
1713723966329146917,0.05645901337265968,0.020240023732185364,-0.017044231295585632,2.7928361892700195,0.6727706789970398,11.522095680236816
1713723966339146917,0.04261057823896408,0.06711165606975555,-0.04367584362626076,1.9285293817520142,0.1604115068912506,10.146626472473145
1713723966349146917,0.049002163112163544,0.08309062570333481,-0.013848437927663326,0.0933738648891449,-1.2437877655029297,8.289923667907715
1713723966358146917,0.06711165606975555,0.06924218684434891,-0.026631610468029976,-1.5131354331970215,-1.2090718746185303,8.365340232849121
1713723966367146917,0.08628641813993454,0.027696875855326653,0.007456851191818714,-2.093729257583618,0.6811503767967224,8.489839553833008
1713723966376146917,0.03621898964047432,-0.030892668291926384,-0.007456851191818714,-2.191891670227051,2.4684219360351562,9.384073257446289
1713723966386146917,-0.044741105288267136,-0.07776430249214172,0.002130528911948204,-1.4879963397979736,3.1304187774658203,10.023324966430664
1713723966395146917,-0.13635385036468506,-0.09800432622432709,0.007456851191818714,-0.04429272934794426,2.24935245513916,10.217255592346191
1713723966406146917,-0.17257283627986908,-0.07563377171754837,-0.003195793367922306,1.721431016921997,0.20709843933582306,9.66299819946289
1713723966415146917,-0.1161138266324997,-0.03515372797846794,-0.004261057823896408,1.6160861253738403,-3.0131027698516846,9.41639518737793
1713723966424146917,-0.027696875855326653,-0.006391586735844612,-0.02130528911948204,0.1999158412218094,-5.187037944793701,9.870096206665039
1713723966434146917,0.03195793181657791,0.02130528911948204,0.007456851191818714,0.5446808934211731,-2.889801502227783,11.061211585998535
1713723966443146917,0.058589544147253036,0.030892668291926384,-0.030892668291926384,0.9876081943511963,0.16759411990642548,11.437101364135742
1713723966453146917,0.02130528911948204,0.02130528911948204,-0.034088462591171265,-0.3196259140968323,0.12330138683319092,10.94150161743164
1713723966462146917,0.023435818031430244,-0.02130528911948204,-0.014913702383637428,-1.625662922859192,-1.7417817115783691,10.06043529510498
1713723966471146917,0.02876213937997818,-0.041545312851667404,0.023435818031430244,-0.38546645641326904,-1.9009960889816284,9.21408462524414
1713723966481146917,0.08096009492874146,-0.017044231295585632,-0.006391586735844612,1.434126853942871,-0.4572925269603729,8.743624687194824
1713723966490146917,0.07350324839353561,0.024501081556081772,-0.009587380103766918,1.1719616651535034,0.6787561774253845,8.450334548950195
1713723966500146917,0.027696875855326653,0.037284255027770996,-0.014913702383637428,0.1412578970193863,2.009932279586792,9.429563522338867
1713723966509146917,-0.04261057823896408,0.024501081556081772,-0.020240023732185364,-0.7445967197418213,2.5510218143463135,10.041281700134277
1713723966518146917,-0.11078750342130661,-0.00532632227987051,-0.007456851191818714,-1.115697979927063,1.7190368175506592,10.073603630065918
1713723966528146917,-0.10972223430871964,-0.047936901450157166,-0.004261057823896408,-1.3287819623947144,-0.7469909191131592,9.532513618469238
1713723966537146917,-0.08415588736534119,-0.07137271761894226,0.019174760207533836,-0.7015010714530945,-2.6862943172454834,9.038111686706543
1713723966547146917,-0.03941478580236435,-0.04687163606286049,0.015978965908288956,1.260547161102295,-1.765723705291748,9.853337287902832
1713723966556146917,-0.020240023732185364,0.003195793367922306,-0.015978965908288956,1.987187385559082,-0.36990416049957275,11.165359497070312
1713723966566146917,-0.002130528911948204,0.006391586735844612,-0.03621898964047432,-0.15322890877723694,-1.5885528326034546,11.704054832458496
1713723966576146917,0.014913702383637428,-0.03941478580236435,-0.012783173471689224,-1.8531121015548706,-3.885789394378662,11.249156951904297
1713723966585146917,0.04367584362626076,-0.05645901337265968,0.029827404767274857,0.43335050344467163,-3.269282341003418,10.552443504333496
1713723966595146917,0.12463594228029251,-0.00532632227987051,-0.008522115647792816,3.228580951690674,-1.521515130996704,9.071630477905273
1713723966604146917,0.14274543523788452,0.08309062570333481,-0.02556634694337845,2.786850690841675,-0.40701428055763245,8.028955459594727
1713723966613146917,0.13315805792808533,0.11930961906909943,-0.04048004746437073,0.3842693567276001,1.4903905391693115,8.415618896484375
1713723966623146917,0.06604639440774918,0.08309062570333481,-0.030892668291926384,-1.9716250896453857,3.3650503158569336,8.937554359436035
1713723966632146917,-0.04687163606286049,0.009587380103766918,-0.019174760207533836,-3.027467966079712,4.175487518310547,9.7791166305542
1713723966642146917,-0.1533980816602707,-0.06604639440774918,-0.003195793367922306,-2.4133553504943848,3.1028852462768555,10.038887977600098
1713723966651146917,-0.20559602975845337,-0.10439591109752655,0.01810949482023716,-0.547075092792511,0.6787561774253845,9.797073364257812
1713723966661146917,-0.14487595856189728,-0.10439591109752655,-0.001065264455974102,0.42616790533065796,-2.9927520751953125,9.265560150146484
1713723966671146917,-0.07563377171754837,-0.06924218684434891,0.017044231295585632,1.0342950820922852,-4.993107795715332,9.78989028930664
1713723966680146917,-0.002130528911948204,-0.004261057823896408,0.004261057823896408,2.7676970958709717,-2.8646621704101562,11.371260643005371
1713723966689146917,0.037284255027770996,0.055393751710653305,-0.027696875855326653,2.6803088188171387,-1.1623848676681519,12.211625099182129
1713723966699146917,0.06817692518234253,0.05965480953454971,-0.05645901337265968,-0.2849099934101105,-2.8790276050567627,11.373655319213867
1713723966708146917,0.08309062570333481,0.02876213937997818,0.009587380103766918,-1.478419542312622,-3.603273391723633,9.75517463684082
1713723966717146917,0.13315805792808533,0.014913702383637428,0.0,0.2561795711517334,-1.3898340463638306,8.99740982055664
1713723966727146917,0.14913702011108398,0.04048004746437073,-0.02556634694337845,0.7134720683097839,0.6368576288223267,8.622716903686523
1713723966737146917,0.1257012039422989,0.041545312851667404,-0.03195793181657791,-0.5171475410461426,2.123656988143921,8.027758598327637
1713723966746146917,0.04048004746437073,0.008522115647792816,-0.023435818031430244,-1.4915876388549805,3.646369218826294,8.35456657409668
1713723966756146917,-0.07243797928094864,-0.03302319720387459,-0.03195793181657791,-1.599326729774475,4.303577423095703,9.63187313079834
1713723966765146917,-0.1715075671672821,-0.0649811327457428,-0.014913702383637428,-0.8607155084609985,3.1974563598632812,10.0580415725708
1713723966775146917,-0.2183792144060135,-0.06817692518234253,-0.007456851191818714,0.4836287498474121,0.8846575021743774,9.374496459960938
1713723966784146917,-0.1757686287164688,-0.058589544147253036,-0.01065264455974102,0.31842881441116333,-2.6599581241607666,9.606734275817871
1713723966793146917,-0.08522115647792816,-0.0649811327457428,-0.003195793367922306,-0.9445125460624695,-5.8215012550354,10.892420768737793
1713723966803146917,-0.014913702383637428,-0.04687163606286049,0.02556634694337845,0.712274968624115,-4.434061527252197,11.996147155761719
1713723966812146917,0.037284255027770996,-0.006391586735844612,-0.013848437927663326,2.845508575439453,-1.6759411096572876,12.372036933898926
1713723966822146917,0.07989483326673508,0.03195793181657791,-0.04687163606286049,1.5167267322540283,-2.8419172763824463,11.014524459838867
1713723966831146917,0.10546118021011353,0.04580637067556381,-0.00532632227987051,0.208295539021492,-3.6164417266845703,9.184157371520996
1713723966841146917,0.16405072808265686,0.05965480953454971,-0.014913702383637428,0.5410895943641663,-1.3407529592514038,8.62511157989502
1713723966850146917,0.17470337450504303,0.07137271761894226,-0.03621898964047432,-0.24061726033687592,1.0821791887283325,8.439560890197754
1713723966860146917,0.12676647305488586,0.03834952041506767,-0.023435818031430244,-1.8028337955474854,3.136404275894165,8.26119327545166
1713723966870146917,0.009587380103766918,-0.022370552644133568,-0.014913702383637428,-2.4612393379211426,4.72495698928833,9.05487060546875
1713723966879146917,-0.12144014239311218,-0.08202536404132843,-0.014913702383637428,-1.788468599319458,4.596867084503174,9.792284965515137
1713723966888146917,-0.21944446861743927,-0.10865697264671326,0.00532632227987051,-0.07062894850969315,2.5342624187469482,9.782708168029785
1713723966898146917,-0.23968449234962463,-0.08522115647792816,0.00532632227987051,1.8052279949188232,-0.17836801707744598,9.373299598693848
1713723966907146917,-0.1438107043504715,-0.044741105288267136,-0.01810949482023716,1.2042834758758545,-3.9683892726898193,9.3026704788208
1713723966916146917,-0.05752427875995636,-0.026631610468029976,-0.00532632227987051,-0.5554547905921936,-6.1722517013549805,10.674548149108887
1713723966926146917,0.006391586735844612,-0.017044231295585632,0.009587380103766918,0.5710170865058899,-3.3710360527038574,12.382810592651367
1713723966935146917,0.041545312851667404,-0.002130528911948204,-0.023435818031430244,1.5191209316253662,-1.2342109680175781,12.895170211791992
1713723966945146917,0.06604639440774918,-0.003195793367922306,-0.03515372797846794,0.18076223134994507,-3.3243489265441895,11.23479175567627
1713723966954146917,0.09800432622432709,0.006391586735844612,0.020240023732185364,0.5889735817909241,-3.892971992492676,9.248801231384277
1713723966965146917,0.18322548270225525,0.0511326938867569,-0.022370552644133568,1.7693150043487549,-1.6376339197158813,8.219294548034668
1713723966973146917,0.2045307755470276,0.08735168725252151,-0.026631610468029976,0.4058171808719635,0.7422025203704834,7.680598735809326
1713723966983146917,0.16085493564605713,0.05752427875995636,-0.02556634694337845,-1.7106571197509766,3.4332852363586426,7.957129001617432
1713723966993146917,0.034088462591171265,-0.003195793367922306,-0.01065264455974102,-2.713827610015869,5.669469356536865,8.811859130859375
1713723967002146917,-0.1299622654914856,-0.07350324839353561,-0.006391586735844612,-2.2661118507385254,5.925649166107178,9.84615421295166
1713723967011146917,-0.2631203234195709,-0.11185276508331299,0.01065264455974102,-0.4991910457611084,3.689464807510376,10.155006408691406
1713723967021146917,-0.29933929443359375,-0.09800432622432709,0.014913702383637428,1.1348515748977661,-0.06703764945268631,10.266336441040039
1713723967030146917,-0.16405072808265686,-0.09374327212572098,-0.023435818031430244,-0.1304839849472046,-5.841852188110352,9.5995512008667
1713723967040146917,-0.06711165606975555,-0.08309062570333481,0.03941478580236435,-0.4429273009300232,-7.982268333435059,10.037690162658691
1713723967049146917,0.041545312851667404,-0.03941478580236435,0.012783173471689224,2.7018566131591797,-3.3854012489318848,12.137405395507812
1713723967059146917,0.06285060197114944,0.02876213937997818,-0.026631610468029976,3.8546645641326904,-0.12449848651885986,12.09670352935791
1713723967068146917,0.055393751710653305,0.08309062570333481,-0.047936901450157166,1.6208745241165161,-1.0666168928146362,11.026495933532715
1713723967078146917,0.092678003013134,0.05752427875995636,-0.04048004746437073,-1.5406687259674072,-3.465606927871704,9.3828763961792
1713723967087146917,0.11185276508331299,0.023435818031430244,0.02130528911948204,-1.7345991134643555,-2.34033203125,8.84178638458252
1713723967097146917,0.1715075671672821,-0.003195793367922306,-0.024501081556081772,-0.4884171485900879,0.7948749661445618,8.391676902770996
1713723967107146917,0.11930961906909943,-0.02130528911948204,0.008522115647792816,-0.5626373887062073,2.676717519760132,7.787140846252441
1713723967115146917,0.01810949482023716,-0.03621898964047432,-0.011717909015715122,-0.3315969407558441,4.390965938568115,9.059659004211426
1713723967125146917,-0.09693906456232071,-0.037284255027770996,-0.011717909015715122,0.1256955862045288,4.608838081359863,9.490615844726562
1713723967134243953,-0.2045307755470276,-0.03302319720387459,-0.008522115647792816,0.6428431272506714,3.0358476638793945,9.487024307250977
1713723967143243953,-0.24820661544799805,-0.014913702383637428,-0.014913702383637428,0.811634361743927,0.4321534037590027,10.235212326049805
1713723967152243953,-0.13848437368869781,-0.044741105288267136,-0.03621898964047432,-2.053027868270874,-4.517858505249023,10.139444351196289
1713723967162243953,-0.07563377171754837,-0.09693906456232071,0.02556634694337845,-2.9927520751953125,-6.93001651763916,10.882843971252441
1713723967171243953,0.006391586735844612,-0.1022653877735138,0.030892668291926384,1.2509703636169434,-3.139995574951172,12.520477294921875
1713723967181243953,0.037284255027770996,-0.047936901450157166,-0.022370552644133568,4.100070476531982,-0.727837324142456,11.54244613647461
1713723967191243953,0.04048004746437073,0.04580637067556381,-0.02130528911948204,3.8810009956359863,-1.4903905391693115,9.636661529541016
1713723967200243953,0.08735168725252151,0.10120011866092682,-0.04687163606286049,1.581370234489441,-2.564189910888672,8.59997272491455
1713723967209243953,0.11824434995651245,0.11398329585790634,-0.019174760207533836,-0.8176198601722717,-1.647210717201233,8.667010307312012
1713723967218243953,0.1438107043504715,0.06604639440774918,-0.024501081556081772,-2.1930887699127197,1.0857704877853394,8.573636054992676
1713723967228243953,0.07456851005554199,-0.014913702383637428,-0.001065264455974102,-2.9652187824249268,3.2166099548339844,8.828619003295898
1713723967238243953,-0.037284255027770996,-0.09161274135112762,0.0,-2.205059766769409,4.310760021209717,9.853337287902832
1713723967247243953,-0.15659387409687042,-0.12357067316770554,0.008522115647792816,-0.23343466222286224,3.574542999267578,10.453083992004395
1713723967256243953,-0.21944446861743927,-0.09587380290031433,-0.003195793367922306,1.8710685968399048,1.092953085899353,9.75278091430664
1713723967266243953,-0.18322548270225525,-0.044741105288267136,-0.014913702383637428,1.868674397468567,-2.625242233276367,9.379284858703613
1713723967276243953,-0.05965480953454971,-0.027696875855326653,-0.03195793181657791,-0.35913026332855225,-6.244078159332275,9.841365814208984
1713723967285243953,0.006391586735844612,-0.007456851191818714,0.015978965908288956,-0.011971008032560349,-4.412513732910156,10.945093154907227
1713723967294243953,0.06285060197114944,0.008522115647792816,-0.024501081556081772,1.7046716213226318,-0.2932896912097931,11.857283592224121
1713723967304243953,0.013848437927663326,0.024501081556081772,-0.026631610468029976,1.161187767982483,0.03711012750864029,11.494562149047852
1713723967313243953,0.04261057823896408,0.009587380103766918,-0.03302319720387459,-0.48961424827575684,-2.1272482872009277,9.57201862335205
1713723967323243953,0.052197955548763275,-0.003195793367922306,0.01810949482023716,-0.5327098965644836,-2.3331494331359863,8.26478385925293
1713723967332243953,0.12357067316770554,-0.004261057823896408,-0.017044231295585632,0.49799394607543945,-0.02992752008140087,7.983465671539307
1713723967342243953,0.07989483326673508,0.007456851191818714,-0.001065264455974102,0.18914192914962769,2.1799206733703613,8.596381187438965
1713723967351243953,-0.012783173471689224,0.0,-0.017044231295585632,-0.35673603415489197,4.0545806884765625,10.490194320678711
1713723967361243953,-0.14274543523788452,-0.01810949482023716,-0.01065264455974102,-0.3998316824436188,3.731363296508789,11.097125053405762
1713723967370243953,-0.21092236042022705,-0.049002163112163544,-0.014913702383637428,-0.9840168952941895,-0.0035913025494664907,11.953051567077637
1713723967379243953,-0.09374327212572098,-0.10972223430871964,-0.013848437927663326,-2.385822057723999,-6.57926607131958,9.309853553771973
1713723967389243953,-0.015978965908288956,-0.09480853378772736,0.0788295716047287,0.5865793824195862,-6.552929878234863,8.203731536865234
1713723967399243953,0.1576591432094574,-0.020240023732185364,-0.023435818031430244,4.284423828125,-1.4437036514282227,8.93276596069336
1713723967408243953,0.09480853378772736,0.08309062570333481,0.00532632227987051,3.3662474155426025,1.765723705291748,10.339360237121582
1713723967418243953,0.003195793367922306,0.1203748807311058,-0.049002163112163544,1.2198457717895508,3.5434184074401855,12.350489616394043
1713723967427243953,-0.08628641813993454,0.08202536404132843,-0.02556634694337845,-2.227804660797119,1.3060369491577148,11.670536041259766
1713723967436243953,-0.04048004746437073,-0.055393751710653305,-0.019174760207533836,-4.89494514465332,-4.086902141571045,9.091980934143066
1713723967446243953,-0.01065264455974102,-0.1257012039422989,0.06391586363315582,-1.6089035272598267,-4.308365821838379,7.729680061340332
1713723967456243953,0.1161138266324997,-0.1065264418721199,-0.004261057823896408,2.7449522018432617,-0.36152446269989014,8.070854187011719
1713723967465243953,0.06604639440774918,-0.017044231295585632,-0.004261057823896408,3.4775779247283936,2.0254945755004883,9.023746490478516
1713723967474243953,-0.030892668291926384,0.06604639440774918,-0.03621898964047432,2.9101521968841553,3.823539972305298,11.580753326416016
1713723967484243953,-0.14487595856189728,0.11078750342130661,-0.044741105288267136,0.9876081943511963,2.9041666984558105,11.681309700012207
1713723967494243953,-0.08948221057653427,0.02556634694337845,-0.06285060197114944,-4.371812343597412,-3.618835926055908,9.900023460388184
1713723967503243953,-0.03834952041506767,-0.08735168725252151,0.047936901450157166,-4.988319396972656,-7.712920665740967,8.183381080627441
1713723967512243953,0.11824434995651245,-0.10333064943552017,0.04367584362626076,0.8750807046890259,-3.156754970550537,8.621520042419434
1713723967522243953,0.1299622654914856,-0.044741105288267136,0.00532632227987051,3.405751943588257,1.8519150018692017,10.261548042297363
1713723967531243953,0.05326322093605995,0.04048004746437073,-0.017044231295585632,2.9975404739379883,4.062960147857666,10.716446876525879
1713723967541243953,-0.11930961906909943,0.08735168725252151,-0.013848437927663326,1.4149731397628784,4.030638694763184,11.250353813171387
1713723967550243953,-0.1619201898574829,0.041545312851667404,-0.05965480953454971,-2.1727380752563477,-0.3998316824436188,11.652579307556152
1713723967560243953,-0.0511326938867569,-0.09054747968912125,0.004261057823896408,-5.261258125305176,-7.443572998046875,8.592789649963379
1713723967569243953,0.02556634694337845,-0.13741911947727203,0.07137271761894226,-0.9301473498344421,-5.726930141448975,8.238448143005371
1713723967579243953,0.18322548270225525,-0.09161274135112762,-0.024501081556081772,4.128800868988037,0.1604115068912506,9.135076522827148
1713723967588243953,0.1065264418721199,0.011717909015715122,-0.00532632227987051,3.9408559799194336,2.697068214416504,9.702502250671387
1713723967598243953,-0.017044231295585632,0.08628641813993454,-0.044741105288267136,2.8095955848693848,4.398148536682129,11.953051567077637
1713723967607243953,-0.14168016612529755,0.12676647305488586,-0.01810949482023716,1.217451572418213,3.0370447635650635,10.921151161193848
1713723967617243953,-0.12783172726631165,0.08096009492874146,-0.03302319720387459,-3.0334534645080566,-2.431311845779419,9.439140319824219
1713723967626243953,-0.02556634694337845,-0.04261057823896408,0.014913702383637428,-5.349843502044678,-7.6530656814575195,8.052897453308105
1713723967636243953,0.07669904083013535,-0.07669904083013535,0.08309062570333481,-1.191115379333496,-3.973177671432495,9.012971878051758
1713723967645243953,0.15020228922367096,-0.06391586363315582,-0.00532632227987051,2.448071241378784,1.8782511949539185,10.24239444732666
1713723967655243953,0.04261057823896408,0.004261057823896408,0.026631610468029976,2.806004285812378,3.7050271034240723,10.380061149597168
1713723967664243953,-0.10759171098470688,0.05752427875995636,-0.02130528911948204,2.209848165512085,3.73016619682312,11.670536041259766
1713723967673243953,-0.15552860498428345,0.06711165606975555,-0.02556634694337845,-0.1388636976480484,-0.05027823522686958,11.854889869689941
1713723967683243953,-0.03195793181657791,-0.02556634694337845,-0.02130528911948204,-3.6727054119110107,-6.453570365905762,8.38569164276123
1713723967692243953,0.023435818031430244,-0.06817692518234253,0.0649811327457428,-1.48081374168396,-5.598840713500977,7.684190273284912
1713723967702243953,0.1810949593782425,-0.05645901337265968,-0.011717909015715122,2.425326347351074,0.1999158412218094,8.84178638458252
1713723967711243953,0.08309062570333481,0.007456851191818714,0.00532632227987051,2.6647465229034424,3.351882219314575,9.870096206665039
1713723967721243953,-0.047936901450157166,0.0649811327457428,-0.030892668291926384,2.2912509441375732,4.8255133628845215,12.315773010253906
1713723967730243953,-0.1810949593782425,0.092678003013134,-0.026631610468029976,0.5793967843055725,2.4660277366638184,11.97220516204834
1713723967740243953,-0.08202536404132843,0.0,-0.052197955548763275,-4.309563159942627,-5.304353713989258,8.712499618530273
1713723967750243953,-0.02556634694337845,-0.09587380290031433,0.06178533658385277,-4.338293552398682,-8.343792915344238,7.119158744812012
1713723967758243953,0.16937704384326935,-0.09587380290031433,0.034088462591171265,1.5705963373184204,-2.6431987285614014,8.713696479797363
1713723967768243953,0.14487595856189728,-0.02130528911948204,0.013848437927663326,3.837905168533325,2.3702597618103027,10.554838180541992
1713723967777243953,0.06285060197114944,0.06391586363315582,-0.034088462591171265,3.181894063949585,4.458003520965576,11.368866920471191
1713723967787243953,-0.11078750342130661,0.11185276508331299,-0.009587380103766918,1.3515268564224243,3.861847162246704,10.612298965454102
1713723967796243953,-0.1672465205192566,0.07137271761894226,-0.05432848632335663,-2.0027496814727783,-0.06823474913835526,11.388020515441895
1713723967807243953,-0.04261057823896408,-0.055393751710653305,-0.011717909015715122,-5.04218864440918,-6.472723960876465,8.154650688171387
1713723967815243953,0.012783173471689224,-0.11291802674531937,0.0649811327457428,-1.8171991109848022,-5.368997097015381,7.9176249504089355
1713723967825243953,0.16831177473068237,-0.10333064943552017,-0.019174760207533836,3.00711727142334,0.3076549172401428,9.077615737915039
1713723967835243953,0.06711165606975555,-0.006391586735844612,0.006391586735844612,3.755305290222168,3.2597055435180664,10.27591323852539
1713723967844243953,-0.05645901337265968,0.07563377171754837,-0.05645901337265968,3.1675288677215576,4.473565578460693,12.81735897064209
1713723967853243953,-0.1768338978290558,0.1065264418721199,-0.030892668291926384,0.25498247146606445,1.4939818382263184,11.66574764251709
1713723967863243953,-0.03621898964047432,-0.001065264455974102,-0.07456851005554199,-4.738124847412109,-7.182604789733887,9.016563415527344
1713723967872243953,0.020240023732185364,-0.08948221057653427,0.08415588736534119,-3.9839515686035156,-8.923189163208008,7.280767440795898
1713723967882243953,0.24501082301139832,-0.10759171098470688,-0.004261057823896408,1.5083470344543457,-1.6711527109146118,8.08162784576416
1713723967891243953,0.18748654425144196,-0.03515372797846794,0.00532632227987051,3.332728624343872,2.869450807571411,9.894038200378418
1713723967901243953,0.09054747968912125,0.03941478580236435,-0.03834952041506767,2.6898856163024902,5.324704647064209,11.040861129760742
1713723967910243953,-0.10333064943552017,0.08948221057653427,-0.01065264455974102,1.3251906633377075,5.064933776855469,10.57040023803711
1713723967920243953,-0.23755396902561188,0.08415588736534119,-0.029827404767274857,0.09217676520347595,2.404975652694702,10.58117389678955
1713723967929243953,-0.10865697264671326,-0.007456851191818714,-0.06072007119655609,-4.217386245727539,-4.90691614151001,8.323442459106445
1713723967939243953,-0.05006742849946022,-0.1065264418721199,0.0511326938867569,-4.383783340454102,-8.074444770812988,7.842207431793213
1713723967948243953,0.13848437368869781,-0.11717908829450607,0.020240023732185364,1.890222191810608,-2.4133553504943848,9.242815971374512
1713723967958243953,0.10759171098470688,-0.037284255027770996,-0.001065264455974102,4.010287761688232,2.2433669567108154,11.043254852294922
1713723967967243953,0.02130528911948204,0.05432848632335663,-0.03621898964047432,3.4811692237854004,3.8271312713623047,12.112266540527344
1713723967976243953,-0.13528858125209808,0.12357067316770554,-0.001065264455974102,2.2373814582824707,2.78086519241333,11.36048698425293
1713723967986243953,-0.07989483326673508,0.07030745595693588,-0.08309062570333481,-3.6954503059387207,-3.5721487998962402,10.821791648864746
1713723967995243953,0.03834952041506767,-0.06285060197114944,0.024501081556081772,-6.761225700378418,-9.838972091674805,8.064867973327637
1713723968005243953,0.15126754343509674,-0.13102751970291138,0.06178533658385277,-1.091755986213684,-5.141548156738281,9.26675796508789
1713723968014243953,0.27164241671562195,-0.1299622654914856,-0.027696875855326653,2.9688100814819336,1.4425065517425537,9.674968719482422
1713723968024243953,0.18216021358966827,-0.04367584362626076,-0.015978965908288956,3.066972255706787,3.5170822143554688,8.371326446533203
1713723968033243953,0.058589544147253036,0.027696875855326653,-0.023435818031430244,2.492363929748535,5.2229509353637695,9.798270225524902
1713723968043243953,-0.09054747968912125,0.07137271761894226,-0.023435818031430244,1.4305354356765747,5.035006046295166,9.518148422241211
1713723968052243953,-0.20559602975845337,0.08628641813993454,0.003195793367922306,0.6607996821403503,3.2190041542053223,9.374496459960938
1713723968062243953,-0.23755396902561188,0.08522115647792816,-0.011717909015715122,-0.33039984107017517,0.5650315880775452,9.90241813659668
1713723968071243953,-0.12357067316770554,-0.009587380103766918,-0.029827404767274857,-4.06894588470459,-4.581305027008057,8.912415504455566
1713723968081243953,-0.09693906456232071,-0.09800432622432709,0.07030745595693588,-3.446453332901001,-5.610811710357666,9.78869342803955
1713723968090243953,0.003195793367922306,-0.10333064943552017,0.037284255027770996,2.0195090770721436,-1.4317325353622437,11.93868637084961
1713723968100243953,-0.03515372797846794,-0.017044231295585632,0.014913702383637428,3.9013516902923584,-0.25737667083740234,12.768277168273926
1713723968109243953,0.05432848632335663,0.029827404767274857,-0.0511326938867569,0.811634361743927,-4.098873138427734,11.97100830078125
1713723968119243953,0.12463594228029251,0.007456851191818714,0.002130528911948204,-2.1715409755706787,-7.553706169128418,9.10993766784668
1713723968128243953,0.21944446861743927,-0.014913702383637428,0.03515372797846794,-0.07182604819536209,-3.7158010005950928,9.10993766784668
1713723968138243953,0.2886866629123688,-0.003195793367922306,-0.023435818031430244,1.985990285873413,1.3539210557937622,8.893261909484863
1713723968147243953,0.2269013226032257,0.03834952041506767,-0.011717909015715122,1.4401123523712158,3.999513864517212,7.47230339050293
1713723968157243953,0.07137271761894226,0.049002163112163544,-0.02876213937997818,0.41539397835731506,6.3518171310424805,8.337807655334473
1713723968166243953,-0.09374327212572098,0.03834952041506767,-0.015978965908288956,-0.3387795388698578,6.865373134613037,9.259574890136719
1713723968175243953,-0.24394555389881134,0.014913702383637428,-0.006391586735844612,-0.729034423828125,4.835090160369873,9.10993766784668
1713723968185243953,-0.32170987129211426,-0.017044231295585632,-0.009587380103766918,-0.7230489253997803,1.5849615335464478,9.75637149810791
1713723968195243953,-0.21411815285682678,-0.09161274135112762,-0.013848437927663326,-2.7437551021575928,-4.23893404006958,9.510966300964355
1713723968204243953,-0.15020228922367096,-0.14594122767448425,0.05752427875995636,-1.766920804977417,-7.709329128265381,11.008539199829102
1713723968214243953,0.004261057823896408,-0.06711165606975555,0.06817692518234253,4.882974147796631,-5.242104530334473,12.5156888961792
1713723968223243953,0.04261057823896408,0.06072007119655609,-0.0649811327457428,5.463568210601807,-2.940079689025879,13.139378547668457
1713723968232243953,0.15659387409687042,0.1065264418721199,-0.049002163112163544,-0.40222588181495667,-4.722562789916992,11.748347282409668
1713723968242243953,0.18216021358966827,0.07456851005554199,-0.006391586735844612,-2.359485626220703,-4.660313606262207,8.78073501586914
1713723968251243953,0.2737729549407959,0.014913702383637428,0.008522115647792816,-0.9564835429191589,-0.4297592043876648,7.833827972412109
1713723968261243953,0.22583605349063873,-0.007456851191818714,-0.011717909015715122,-0.21428105235099792,2.985569477081299,7.754819393157959
1713723968270243953,0.1438107043504715,-0.01065264455974102,-0.012783173471689224,0.20470423996448517,5.451597213745117,8.058882713317871
1713723968280243953,-0.023435818031430244,-0.007456851191818714,-0.004261057823896408,0.47884032130241394,6.797138690948486,8.394070625305176
1713723968289243953,-0.20133498311042786,0.0,-0.02556634694337845,0.8008604645729065,6.147112846374512,9.747992515563965
1713723968299243953,-0.3206445872783661,0.017044231295585632,-0.008522115647792816,0.7757213115692139,3.177105665206909,10.032901763916016
1713723968308243953,-0.2695119082927704,-0.029827404767274857,-0.05006742849946022,-2.2828712463378906,-2.934094190597534,10.046070098876953
1713723968318243953,-0.1395496428012848,-0.13102751970291138,0.022370552644133568,-3.8151602745056152,-8.815450668334961,9.593565940856934
1713723968327243953,-0.029827404767274857,-0.11504855751991272,0.06924218684434891,1.9800047874450684,-5.875370979309082,10.777499198913574
1713723968337243953,0.08309062570333481,-0.00532632227987051,-0.027696875855326653,5.943605422973633,-0.6368576288223267,11.829750061035156
1713723968346243953,0.029827404767274857,0.13528858125209808,-0.019174760207533836,4.581305027008057,0.22625206410884857,11.459846496582031
1713723968356243953,0.06391586363315582,0.1672465205192566,-0.07243797928094864,-1.0450689792633057,-2.470816135406494,11.979388236999512
1713723968365243953,0.12783172726631165,0.05752427875995636,-0.006391586735844612,-5.7544636726379395,-5.963956356048584,9.532513618469238
1713723968374243953,0.1672465205192566,-0.034088462591171265,0.07350324839353561,-3.2549171447753906,-2.5342624187469482,8.913612365722656
1713723968384243953,0.23435817658901215,-0.0788295716047287,0.011717909015715122,0.15801730751991272,2.233790159225464,8.26358699798584
1713723968393243953,0.1342233121395111,-0.044741105288267136,0.058589544147253036,1.3120225667953491,4.173093318939209,7.5632829666137695
1713723968403243953,0.011717909015715122,-0.009587380103766918,-0.007456851191818714,1.4389152526855469,5.430049419403076,9.29069995880127
1713723968412243953,-0.1161138266324997,0.03302319720387459,0.06711165606975555,1.1001356840133667,4.99550199508667,9.346962928771973
1713723968422243953,-0.23116238415241241,0.055393751710653305,0.017044231295585632,0.8092401623725891,3.294421434402466,9.536105155944824
1713723968431243953,-0.26738137006759644,0.0649811327457428,0.05432848632335663,-0.43335050344467163,0.5243301391601562,10.20887565612793
1713723968441243953,-0.13848437368869781,-0.027696875855326653,-0.006391586735844612,-4.2509050369262695,-5.357026100158691,9.680953979492188
1713723968451243953,-0.11291802674531937,-0.11504855751991272,0.13741911947727203,-3.290830135345459,-6.610390663146973,10.183736801147461
1713723968460243953,0.01065264455974102,-0.10759171098470688,0.07776430249214172,2.7305870056152344,-1.8303672075271606,11.924321174621582
1713723968469243953,-0.023435818031430244,0.006391586735844612,0.07563377171754837,4.784811973571777,-0.33518823981285095,12.381613731384277
1713723968478243953,0.05326322093605995,0.07243797928094864,-0.008522115647792816,1.545457124710083,-3.6152443885803223,11.647790908813477
1713723968488243953,0.12783172726631165,0.05432848632335663,0.05006742849946022,-2.182314872741699,-6.878541469573975,8.847772598266602
1713723968498243953,0.20559602975845337,0.014913702383637428,0.08948221057653427,-1.1097124814987183,-3.2178070545196533,8.8070707321167
1713723968507243953,0.260989785194397,0.004261057823896408,0.03515372797846794,0.8858546018600464,1.945288896560669,8.848969459533691
1713723968517243953,0.1768338978290558,0.026631610468029976,0.05645901337265968,0.5985504388809204,4.54419469833374,7.729680061340332
1713723968526243953,0.008522115647792816,0.03195793181657791,0.04048004746437073,0.09935937076807022,6.536170482635498,9.114726066589355
1713723968536243953,-0.148071750998497,0.029827404767274857,0.05006742849946022,-0.34596213698387146,6.1507039070129395,9.856927871704102
1713723968545243953,-0.2727077007293701,0.013848437927663326,0.06178533658385277,-0.6955155730247498,3.380612850189209,9.410409927368164
1713723968554243953,-0.260989785194397,-0.04261057823896408,0.05006742849946022,-2.273294448852539,-1.5059528350830078,9.532513618469238
1713723968564243953,-0.16085493564605713,-0.13102751970291138,0.09693906456232071,-3.136404275894165,-6.471527099609375,9.314641952514648
1713723968573243953,-0.08628641813993454,-0.12144014239311218,0.14700649678707123,1.43532395362854,-4.689043998718262,10.617087364196777
1713723968583243953,0.011717909015715122,-0.019174760207533836,0.07030745595693588,5.542576789855957,-0.9217676520347595,11.826159477233887
1713723968593243953,-0.02130528911948204,0.11185276508331299,0.07030745595693588,4.313154220581055,-0.9756371974945068,12.382810592651367
1713723968602243953,0.092678003013134,0.11398329585790634,-0.006391586735844612,-1.9572598934173584,-5.357026100158691,11.887210845947266
1713723968611243953,0.12889699637889862,0.024501081556081772,0.11291802674531937,-4.77044677734375,-7.163451194763184,9.387664794921875
1713723968621243953,0.24288028478622437,-0.041545312851667404,0.11185276508331299,-1.0342950820922852,-1.823184609413147,8.565256118774414
1713723968630243953,0.23116238415241241,-0.037284255027770996,0.0788295716047287,1.1324573755264282,2.5905261039733887,8.615534782409668
1713723968640243953,0.16511598229408264,0.014913702383637428,0.09161274135112762,1.2545616626739502,4.863820552825928,7.8517842292785645
1713723968650243953,0.003195793367922306,0.05006742849946022,0.08522115647792816,0.39624038338661194,6.35301399230957,8.249221801757812
1713723968659243953,-0.15126754343509674,0.058589544147253036,0.10865697264671326,-0.568622887134552,6.228515625,9.57321548461914
1713723968668243953,-0.28442561626434326,0.04367584362626076,0.13635385036468506,-1.0881646871566772,4.001908302307129,9.982624053955078
1713723968677243953,-0.2780340313911438,-0.009587380103766918,0.12676647305488586,-2.827552080154419,-0.9133879542350769,10.418368339538574
1713723968687243953,-0.1672465205192566,-0.12676647305488586,0.1672465205192566,-4.845864295959473,-7.143100738525391,9.030928611755371
1713723968696243953,-0.10013485699892044,-0.15552860498428345,0.24820661544799805,-0.11133037507534027,-5.547365188598633,9.831789016723633
1713723968707243953,0.02876213937997818,-0.07350324839353561,0.1533980816602707,5.310339450836182,-0.8379705548286438,11.034875869750977
1713723968715243953,-0.023435818031430244,0.07563377171754837,0.15978966653347015,5.448005676269531,0.03711012750864029,11.443086624145508
1713723968725243953,-0.020240023732185364,0.15978966653347015,0.10546118021011353,1.723825216293335,-1.6819266080856323,13.421894073486328
1713723968734243953,0.09587380290031433,0.0788295716047287,0.09906959533691406,-4.636371612548828,-7.2352776527404785,10.921151161193848
1713723968744243953,0.12357067316770554,-0.012783173471689224,0.23435817658901215,-4.242525577545166,-5.8873419761657715,8.900444984436035
1713723968753243953,0.27164241671562195,-0.06391586363315582,0.1533980816602707,0.1304839849472046,0.06584054231643677,7.6518683433532715
1713723968763243953,0.17896442115306854,-0.026631610468029976,0.20026971399784088,1.5705963373184204,3.311180830001831,7.849390029907227
1713723968773243953,0.10439591109752655,0.011717909015715122,0.10439591109752655,1.37906014919281,5.389348030090332,8.864531517028809
1713723968782243953,-0.0649811327457428,0.03834952041506767,0.1992044448852539,0.4537012279033661,5.890933036804199,8.90882396697998
1713723968791243953,-0.20772656798362732,0.037284255027770996,0.12144014239311218,0.1951274424791336,4.8470611572265625,9.927556991577148
1713723968801243953,-0.3099919557571411,0.049002163112163544,0.2183792144060135,0.416591078042984,2.208651065826416,9.953893661499023
1713723968810243953,-0.21198762953281403,-0.012783173471689224,0.10439591109752655,-2.959233283996582,-4.140771865844727,10.08437728881836
1713723968819243953,-0.11185276508331299,-0.10865697264671326,0.23542344570159912,-4.226963043212891,-9.072827339172363,8.542511940002441
1713723968830243953,0.02876213937997818,-0.10759171098470688,0.23329290747642517,1.908178687095642,-4.660313606262207,10.08437728881836
1713723968839243953,0.10013485699892044,-0.004261057823896408,0.16831177473068237,5.306747913360596,0.608127236366272,11.646594047546387
1713723968848243953,0.034088462591171265,0.11930961906909943,0.1533980816602707,4.173093318939209,2.2146365642547607,11.154585838317871
1713723968858243953,-0.08415588736534119,0.18642127513885498,0.14274543523788452,0.7864952683448792,1.7585411071777344,13.00051498413086
1713723968867243953,0.004261057823896408,0.05752427875995636,0.092678003013134,-5.1152119636535645,-4.687846660614014,11.225214958190918
1713723968877243953,0.03621898964047432,-0.07669904083013535,0.24927188456058502,-6.008249282836914,-8.091204643249512,8.01339340209961
1713723968886243953,0.1768338978290558,-0.13528858125209808,0.1906823366880417,-0.4489127993583679,-2.649184226989746,8.835801124572754
1713723968895243953,0.21092236042022705,-0.08096009492874146,0.1810949593782425,3.0849287509918213,1.6615759134292603,8.7268648147583
1713723968905243953,0.16298545897006989,0.01065264455974102,0.14168016612529755,2.7437551021575928,3.579331398010254,7.977479934692383
1713723968915243953,0.029827404767274857,0.07030745595693588,0.185356006026268,1.4628572463989258,5.716156482696533,9.008183479309082
1713723968924243953,-0.13635385036468506,0.08522115647792816,0.15233281254768372,0.22505494952201843,6.232106685638428,10.177751541137695
1713723968933243953,-0.2972087860107422,0.07776430249214172,0.20666129887104034,-0.18914192914962769,4.322731018066406,10.650606155395508
1713723968943243953,-0.3025350868701935,0.02876213937997818,0.15020228922367096,-2.404975652694702,-1.1875240802764893,10.994174003601074
1713723968952243953,-0.14274543523788452,-0.11398329585790634,0.18429075181484222,-6.039373874664307,-9.520543098449707,8.74721622467041
1713723968962243953,-0.05645901337265968,-0.15872439742088318,0.3014698326587677,-1.502361536026001,-7.7165117263793945,9.223661422729492
1713723968972243953,0.13528858125209808,-0.10120011866092682,0.15978966653347015,5.0469770431518555,-0.8044517636299133,10.461463928222656
1713723968981243953,0.05752427875995636,0.03621898964047432,0.21198762953281403,5.481524467468262,1.2773065567016602,10.548852920532227
1713723968990243953,-0.01065264455974102,0.15020228922367096,0.12250541150569916,4.1431660652160645,2.03507137298584,11.63103199005127
1713723969000243953,-0.055393751710653305,0.1896170675754547,0.14594122767448425,-0.447715699672699,0.16879121959209442,10.94389533996582
1713723969009243953,0.017044231295585632,0.06604639440774918,0.12250541150569916,-4.866214752197266,-4.247313976287842,9.222464561462402
1713723969018243953,0.017044231295585632,-0.034088462591171265,0.2269013226032257,-3.8941690921783447,-3.755305290222168,8.461108207702637
1713723969029243953,0.11824434995651245,-0.08096009492874146,0.18855179846286774,-0.5482721924781799,0.6943184733390808,8.78073501586914
1713723969038243953,0.029827404767274857,-0.052197955548763275,0.19174760580062866,1.4197615385055542,2.578555107116699,9.57441234588623
1713723969047243953,-0.04261057823896408,-0.009587380103766918,0.16831177473068237,2.167949676513672,3.154360771179199,10.36449909210205
1713723969056243953,-0.1342233121395111,0.04367584362626076,0.15020228922367096,1.9740192890167236,2.03507137298584,9.679757118225098
1713723969066243953,-0.1438107043504715,0.0511326938867569,0.13528858125209808,-0.24779987335205078,-0.9911994934082031,10.504559516906738
1713723969076243953,-0.0511326938867569,-0.024501081556081772,0.1257012039422989,-3.2142157554626465,-5.371391296386719,9.39484691619873
1713723969085243953,-0.008522115647792816,-0.07137271761894226,0.21518342196941376,-1.1982979774475098,-4.10366153717041,9.363722801208496
1713723969094243953,0.09054747968912125,-0.06285060197114944,0.12463594228029251,2.5929203033447266,0.033518824726343155,9.430760383605957
1713723969104243953,0.026631610468029976,0.009587380103766918,0.1438107043504715,3.1423897743225098,1.7812860012054443,9.510966300964355
1713723969113243953,-0.05645901337265968,0.07137271761894226,0.10759171098470688,2.6180593967437744,2.846705675125122,11.388020515441895
1713723969123243953,-0.13635385036468506,0.09374327212572098,0.09161274135112762,0.26815059781074524,1.2401964664459229,12.103886604309082
1713723969132243953,-0.04367584362626076,-0.015978965908288956,0.06072007119655609,-4.396951198577881,-5.604825973510742,10.9307279586792
1713723969142243953,-0.013848437927663326,-0.12889699637889862,0.1715075671672821,-3.4584243297576904,-8.052897453308105,8.860939979553223
1713723969152243953,0.16618125140666962,-0.13102751970291138,0.11185276508331299,2.920926094055176,-2.9089550971984863,8.699331283569336
1713723969161243953,0.18748654425144196,-0.019174760207533836,0.06711165606975555,4.7357306480407715,0.5566518902778625,8.878896713256836
1713723969170243953,0.15126754343509674,0.07563377171754837,0.01810949482023716,3.2309751510620117,2.9221231937408447,9.002198219299316
1713723969180243953,0.01810949482023716,0.1203748807311058,0.034088462591171265,1.2102689743041992,4.744110584259033,9.827000617980957
1713723969189243953,-0.13209278881549835,0.09693906456232071,0.00532632227987051,-0.569819986820221,4.60165548324585,10.577583312988281
1713723969199243953,-0.22370553016662598,0.0511326938867569,0.03941478580236435,-1.4089876413345337,2.189497470855713,10.001777648925781
1713723969208243953,-0.16085493564605713,-0.05326322093605995,0.006391586735844612,-3.6571431159973145,-3.2405519485473633,8.220491409301758
1713723969218243953,-0.11930961906909943,-0.1203748807311058,0.1065264418721199,-2.1775264739990234,-5.4216694831848145,8.546102523803711
1713723969227243953,0.01065264455974102,-0.092678003013134,0.0649811327457428,3.0633809566497803,-2.1045031547546387,9.719261169433594
1713723969237243953,0.002130528911948204,0.02130528911948204,0.04048004746437073,4.613626480102539,0.5231330394744873,11.046846389770508
1713723969246243953,-0.04687163606286049,0.11930961906909943,-0.003195793367922306,3.028665065765381,1.4317325353622437,12.551602363586426
1713723969255243953,-0.022370552644133568,0.07350324839353561,-0.03834952041506767,-2.9879636764526367,-2.9759926795959473,12.473791122436523
1713723969265243953,0.01810949482023716,-0.06072007119655609,0.034088462591171265,-5.4432172775268555,-7.9858598709106445,9.926360130310059
1713723969274243953,0.12357067316770554,-0.10013485699892044,0.09480853378772736,0.6667851805686951,-4.665102005004883,9.097966194152832
1713723969284243953,0.24181503057479858,-0.034088462591171265,-0.009587380103766918,4.0964789390563965,0.07062894850969315,8.433575630187988
1713723969293243953,0.2087918221950531,0.06285060197114944,-0.004261057823896408,2.9915549755096436,2.5330653190612793,7.383718013763428
1713723969303243953,0.07776430249214172,0.10546118021011353,-0.023435818031430244,1.0558428764343262,5.668272495269775,9.680953979492188
1713723969312243953,-0.09587380290031433,0.08415588736534119,-0.03941478580236435,-0.7649474143981934,6.706158638000488,10.740388870239258
1713723969322243953,-0.2695119082927704,0.03195793181657791,-0.003195793367922306,-1.179144263267517,4.4532151222229,10.42315673828125
1713723969331243953,-0.2865561246871948,-0.037284255027770996,-0.055393751710653305,-2.3977930545806885,-1.40180504322052,10.260351181030273
1713723969340243953,-0.14594122767448425,-0.14700649678707123,0.012783173471689224,-3.5039141178131104,-8.633491516113281,9.141061782836914
1713723969351243953,-0.003195793367922306,-0.10333064943552017,0.07243797928094864,2.313995838165283,-7.753622055053711,8.720879554748535
1713723969360243953,0.148071750998497,0.009587380103766918,-0.06924218684434891,6.1052141189575195,-1.6603788137435913,9.783905029296875
1713723969369243953,0.11078750342130661,0.12783172726631165,-0.027696875855326653,3.5015199184417725,1.9955670833587646,11.21563720703125
1713723969379243953,0.007456851191818714,0.16831177473068237,-0.10120011866092682,1.058237075805664,3.37941575050354,11.996147155761719
1713723969388243953,-0.07350324839353561,0.1065264418721199,-0.06817692518234253,-3.7026329040527344,0.49799394607543945,11.60948371887207
1713723969398243953,-0.026631610468029976,-0.06072007119655609,-0.041545312851667404,-5.960364818572998,-5.019443988800049,9.951498985290527
1713723969407243953,0.009587380103766918,-0.11717908829450607,0.04687163606286049,-1.1623848676681519,-4.575319290161133,8.883685111999512
1713723969416243953,0.14487595856189728,-0.07776430249214172,-0.04048004746437073,3.442862033843994,-0.8415618538856506,8.309077262878418
1713723969426243953,0.11930961906909943,0.027696875855326653,-0.023435818031430244,3.8510732650756836,0.9684545993804932,8.123526573181152
1713723969436243953,0.06604639440774918,0.10120011866092682,-0.0649811327457428,2.5043349266052246,3.0789432525634766,9.727641105651855
1713723969445243953,-0.03302319720387459,0.12889699637889862,-0.06711165606975555,0.23822306096553802,3.8355109691619873,9.835380554199219
1713723969454243953,-0.15126754343509674,0.08948221057653427,-0.07137271761894226,-2.122459888458252,2.7988216876983643,10.651803016662598
1713723969464243953,-0.11504855751991272,-0.03195793181657791,-0.06391586363315582,-5.0254292488098145,-1.8411411046981812,9.93833065032959
1713723969474243953,-0.10546118021011353,-0.13102751970291138,0.029827404767274857,-3.648763418197632,-4.58968448638916,8.880093574523926
1713723969483243953,-0.002130528911948204,-0.1299622654914856,-0.00532632227987051,1.7980453968048096,-2.2206220626831055,9.576807022094727
1713723969492243953,0.006391586735844612,-0.04048004746437073,-0.02556634694337845,4.191050052642822,0.031124621629714966,10.45667552947998
1713723969501243953,-0.014913702383637428,0.05645901337265968,-0.07137271761894226,3.801992177963257,0.7266402244567871,10.960655212402344
1713723969511243953,-0.0511326938867569,0.10013485699892044,-0.07243797928094864,0.8295908570289612,-0.8643068075180054,11.884817123413086
1713723969521243953,0.03302319720387459,0.02130528911948204,-0.09587380290031433,-3.6391866207122803,-5.675455093383789,11.218031883239746
1713723969531243953,0.0649811327457428,-0.03941478580236435,0.04048004746437073,-2.0434510707855225,-5.540182590484619,9.696516990661621
1713723969540243953,0.20666129887104034,-0.024501081556081772,-0.05432848632335663,2.4803929328918457,-1.1851298809051514,8.653841972351074
1713723969549243953,0.17789916694164276,0.05645901337265968,-0.03302319720387459,2.7090392112731934,1.2653355598449707,8.022970199584961
1713723969559243953,0.12463594228029251,0.09693906456232071,-0.07669904083013535,1.2186486721038818,3.641580820083618,8.912415504455566
1713723969568243953,0.00532632227987051,0.09480853378772736,-0.06178533658385277,-0.6655880808830261,4.8686089515686035,8.924386978149414
1713723969578243953,-0.14168016612529755,0.04580637067556381,-0.06391586363315582,-1.9201496839523315,4.406527996063232,9.725247383117676
1713723969588243953,-0.22583605349063873,-0.015978965908288956,-0.04580637067556381,-1.9393033981323242,1.8255788087844849,10.556035041809082
1713723969596243953,-0.15552860498428345,-0.08948221057653427,-0.04048004746437073,-2.649184226989746,-3.646369218826294,9.732429504394531
