t,gx,gy,gz,ax,ay,az
1713723114142521919,0.08948221057653427,0.014913702383637428,-0.06924218684434891,0.34596213698387146,1.5849615335464478,9.320627212524414
1713723114152521919,-0.08628641813993454,0.002130528911948204,-0.05432848632335663,0.06344634294509888,1.1899182796478271,10.162188529968262
1713723114161521919,-0.27696874737739563,-0.020240023732185364,-0.058589544147253036,0.33518823981285095,0.730231523513794,9.888052940368652
1713723114171521919,-0.3419498801231384,-0.006391586735844612,-0.047936901450157166,0.6967126727104187,0.4357447028160095,8.999804496765137
1713723114181521919,-0.21198762953281403,-0.017044231295585632,-0.07989483326673508,0.38307225704193115,-0.5781996846199036,8.514978408813477
1713723114190521919,-0.09693906456232071,-0.03834952041506767,-0.05326322093605995,-0.18794482946395874,-1.2437877655029297,9.229647636413574
1713723114200521919,0.030892668291926384,-0.009587380103766918,-0.05326322093605995,0.2238578498363495,-0.652419924736023,11.508927345275879
1713723114209521919,0.0788295716047287,0.05432848632335663,-0.08096009492874146,0.750582218170166,-0.5781996846199036,12.732364654541016
1713723114219521919,0.013848437927663326,0.10013485699892044,-0.08096009492874146,0.38067805767059326,-1.1755529642105103,12.261903762817383
1713723114228521919,0.07776430249214172,0.041545312851667404,-0.09587380290031433,-0.7637503147125244,-1.702277421951294,10.278307914733887
1713723114238521919,0.06817692518234253,-0.03621898964047432,-0.052197955548763275,-0.7948749661445618,-1.159990668296814,8.358158111572266
1713723114247521919,0.19174760580062866,-0.08948221057653427,-0.06817692518234253,0.05147533491253853,0.456095427274704,7.659050941467285
1713723114257521919,0.14594122767448425,-0.05006742849946022,-0.0649811327457428,0.4034229815006256,1.3455413579940796,8.256404876708984
1713723114267521919,0.0649811327457428,-0.01065264455974102,-0.0884169489145279,0.6991068720817566,1.280897855758667,9.701305389404297
1713723114277521919,-0.09693906456232071,0.02130528911948204,-0.0649811327457428,0.669179379940033,0.851138710975647,10.377667427062988
1713723114286521919,-0.20985709130764008,0.03834952041506767,-0.07563377171754837,0.5255272388458252,0.5327098965644836,10.234015464782715
1713723114295521919,-0.23861923813819885,0.047936901450157166,-0.06817692518234253,0.4704606235027313,-0.0586579404771328,10.164583206176758
1713723114305521919,-0.08522115647792816,-0.027696875855326653,-0.09161274135112762,-0.8092401623725891,-1.304839849472046,9.048885345458984
1713723114315521919,-0.0511326938867569,-0.05752427875995636,-0.037284255027770996,-0.7026981711387634,-1.3060369491577148,9.074024200439453
1713723114324521919,0.10333064943552017,-0.049002163112163544,-0.0788295716047287,0.6883329749107361,-0.5063736438751221,10.39083480834961
1713723114334521919,0.03621898964047432,0.04580637067556381,-0.07137271761894226,0.750582218170166,-0.25737667083740234,11.177330017089844
1713723114343521919,-0.015978965908288956,0.11078750342130661,-0.092678003013134,0.4908113479614258,-0.12689268589019775,11.57596492767334
1713723114353521919,0.007456851191818714,0.08202536404132843,-0.092678003013134,-0.36750996112823486,-0.6871358752250671,9.932345390319824
1713723114362521919,0.01810949482023716,-0.023435818031430244,-0.06817692518234253,-0.8607155084609985,-0.8439561128616333,8.592789649963379
1713723114372521919,0.08309062570333481,-0.09161274135112762,-0.055393751710653305,-0.19033902883529663,0.24779987335205078,8.486248016357422
1713723114382521919,0.10333064943552017,-0.08202536404132843,-0.06285060197114944,0.629675030708313,0.9265560507774353,9.490615844726562
1713723114392521919,0.05006742849946022,-0.01065264455974102,-0.07563377171754837,0.8403647541999817,0.6308721303939819,9.561244010925293
1713723114401521919,-0.05965480953454971,0.05645901337265968,-0.07776430249214172,0.8164227604866028,0.3734954595565796,9.819818496704102
1713723114411521919,-0.12889699637889862,0.08309062570333481,-0.09054747968912125,0.42377370595932007,0.2561795711517334,9.668983459472656
1713723114420521919,-0.13848437368869781,0.06817692518234253,-0.0884169489145279,-0.33997663855552673,-0.040701426565647125,9.947907447814941
1713723114430521919,-0.06604639440774918,-0.029827404767274857,-0.09587380290031433,-0.9193734526634216,-0.8439561128616333,9.628281593322754
1713723114439521919,-0.05326322093605995,-0.08202536404132843,-0.05326322093605995,-0.32202011346817017,-0.9876081943511963,10.05923843383789
1713723114449521919,0.02556634694337845,-0.07669904083013535,-0.07776430249214172,0.5829880833625793,-0.545877993106842,10.691307067871094
1713723114459521919,-0.003195793367922306,0.013848437927663326,-0.07563377171754837,0.7266402244567871,-0.40222588181495667,9.939528465270996
1713723114468521919,-0.020240023732185364,0.08948221057653427,-0.09161274135112762,0.5303156971931458,-0.3280056416988373,10.675745010375977
1713723114477521919,0.034088462591171265,0.07030745595693588,-0.09693906456232071,-0.1173158809542656,-0.8319850564002991,10.279504776000977
1713723114487521919,0.024501081556081772,0.00532632227987051,-0.0649811327457428,-0.5949591398239136,-0.8894459009170532,9.670180320739746
1713723114497521919,0.08096009492874146,-0.04580637067556381,-0.06711165606975555,-0.1628057062625885,-0.019153613597154617,9.241618156433105
1713723114507521919,0.0649811327457428,-0.03621898964047432,-0.06711165606975555,0.46088382601737976,0.6775590777397156,9.040505409240723
1713723114517521919,0.04580637067556381,-0.00532632227987051,-0.08415588736534119,0.4668693244457245,0.7398083209991455,9.130288124084473
1713723114526521919,-0.024501081556081772,0.034088462591171265,-0.08522115647792816,0.2849099934101105,0.6033388376235962,9.103951454162598
1713723114535521919,-0.092678003013134,0.04261057823896408,-0.09693906456232071,0.1280897855758667,0.47405192255973816,9.668983459472656
1713723114545521919,-0.13528858125209808,0.022370552644133568,-0.092678003013134,-0.014365210197865963,-0.038307227194309235,10.438718795776367
1713723114554521919,-0.08735168725252151,-0.055393751710653305,-0.092678003013134,-0.6320692300796509,-1.136048674583435,10.60391902923584
1713723114564521919,-0.08096009492874146,-0.10439591109752655,-0.052197955548763275,-0.5351040959358215,-1.425747036933899,10.198101997375488
1713723114574521919,0.019174760207533836,-0.07137271761894226,-0.06072007119655609,0.5243301391601562,-0.6117185354232788,9.738415718078613
1713723114583521919,0.04687163606286049,0.03834952041506767,-0.07137271761894226,0.9469067454338074,0.021547814831137657,9.496601104736328
1713723114593521919,0.06178533658385277,0.12144014239311218,-0.08628641813993454,0.7218518257141113,0.18555063009262085,9.569623947143555
1713723114602521919,0.02130528911948204,0.13741911947727203,-0.08415588736534119,0.1412578970193863,-0.038307227194309235,10.156203269958496
1713723114612521919,0.008522115647792816,0.04580637067556381,-0.0884169489145279,-0.5722141861915588,-0.44173020124435425,10.754754066467285
1713723114621521919,-0.027696875855326653,-0.06604639440774918,-0.058589544147253036,-0.8248024582862854,-0.5889735817909241,9.841365814208984
1713723114631521919,-0.003195793367922306,-0.12676647305488586,-0.05752427875995636,-0.17836801707744598,-0.04189852997660637,8.941145896911621
1713723114641521919,0.020240023732185364,-0.08948221057653427,-0.06285060197114944,0.5339069962501526,0.5410895943641663,8.644265174865723
1713723114650521919,0.03195793181657791,-0.001065264455974102,-0.07989483326673508,0.8978255987167358,0.6560112833976746,8.573636054992676
1713723114660521919,-0.01065264455974102,0.08096009492874146,-0.0884169489145279,0.8092401623725891,0.5351040959358215,9.567230224609375
1713723114669521919,-0.08628641813993454,0.11504855751991272,-0.09587380290031433,0.35075053572654724,0.17956513166427612,10.931924819946289
1713723114679521919,-0.12357067316770554,0.0649811327457428,-0.092678003013134,-0.5722141861915588,-0.6931213736534119,11.888408660888672
1713723114689521919,-0.06604639440774918,-0.07030745595693588,-0.06711165606975555,-1.436521053314209,-1.699883222579956,10.42315673828125
1713723114698521919,-0.03941478580236435,-0.12144014239311218,-0.027696875855326653,-0.5734112858772278,-1.1408370733261108,9.3026704788208
1713723114707521919,0.12889699637889862,-0.08522115647792816,-0.06178533658385277,0.9265560507774353,0.0011971008498221636,8.370128631591797
1713723114717521919,0.09800432622432709,0.022370552644133568,-0.06604639440774918,1.2737152576446533,0.36750996112823486,8.60116958618164
1713723114727521919,0.03621898964047432,0.10865697264671326,-0.09161274135112762,0.8918401002883911,0.48123452067375183,10.979808807373047
1713723114736521919,-0.07989483326673508,0.14487595856189728,-0.08628641813993454,0.5398924946784973,0.19871874153614044,11.194089889526367
1713723114746521919,-0.1342233121395111,0.0788295716047287,-0.09693906456232071,-0.3064578175544739,-0.24420857429504395,11.14500904083252
1713723114755521919,-0.06604639440774918,-0.052197955548763275,-0.07456851005554199,-1.1336544752120972,-0.8104372620582581,8.394070625305176
1713723114766521919,-0.030892668291926384,-0.09800432622432709,-0.052197955548763275,-0.3519476354122162,-0.3196259140968323,7.73207426071167
1713723114775521919,0.09587380290031433,-0.09161274135112762,-0.0884169489145279,0.7589619159698486,0.30286651849746704,8.9064302444458
1713723114784521919,0.017044231295585632,-0.001065264455974102,-0.0884169489145279,1.0905588865280151,0.22026655077934265,9.963470458984375
1713723114794521919,-0.08522115647792816,0.08096009492874146,-0.10333064943552017,0.954089343547821,0.013168109580874443,12.265495300292969
1713723114804521919,-0.15020228922367096,0.11185276508331299,-0.10439591109752655,0.5865793824195862,-0.7601590156555176,12.103886604309082
1713723114813521919,-0.027696875855326653,0.015978965908288956,-0.10333064943552017,-1.259350061416626,-1.9524714946746826,9.41759204864502
1713723114823521919,-0.002130528911948204,-0.049002163112163544,-0.04580637067556381,-1.1324573755264282,-1.3192051649093628,8.160635948181152
1713723114832521919,0.2045307755470276,-0.08309062570333481,-0.092678003013134,0.7864952683448792,0.23104046285152435,8.037335395812988
1713723114842521919,0.12676647305488586,-0.022370552644133568,-0.10013485699892044,1.1623848676681519,0.8152256608009338,9.642646789550781
1713723114851521919,0.03515372797846794,0.023435818031430244,-0.1299622654914856,1.2677297592163086,0.872686505317688,11.537657737731934
1713723114861521919,-0.1203748807311058,0.055393751710653305,-0.13102751970291138,1.280897855758667,0.2561795711517334,10.290278434753418
1713723114870521919,-0.22583605349063873,0.06072007119655609,-0.15126754343509674,1.0857704877853394,0.0586579404771328,9.402029991149902
1713723114881521919,-0.14168016612529755,0.034088462591171265,-0.1768338978290558,0.16998831927776337,-0.4141968786716461,8.118738174438477
1713723114890521919,-0.06924218684434891,-0.026631610468029976,-0.16937704384326935,-0.04189852997660637,-0.8008604645729065,8.043320655822754
1713723114899521919,0.03941478580236435,-0.058589544147253036,-0.1768338978290558,0.8212111592292786,-0.33997663855552673,9.690530776977539
1713723114909521919,0.020240023732185364,-0.026631610468029976,-0.1992044448852539,1.3239935636520386,-0.32441431283950806,12.199654579162598
1713723114919521919,-0.05326322093605995,0.03515372797846794,-0.21092236042022705,1.3072340488433838,-0.8283937573432922,12.697648048400879
1713723114928521919,-0.08415588736534119,0.07989483326673508,-0.22157500684261322,0.8631097078323364,-1.1659761667251587,11.307814598083496
1713723114937521919,0.02876213937997818,0.03195793181657791,-0.24820661544799805,0.08619125932455063,-1.5885528326034546,8.214506149291992
1713723114948521919,0.06711165606975555,-0.008522115647792816,-0.21518342196941376,0.4991910457611084,-0.7829039692878723,7.4986395835876465
1713723114957521919,0.18322548270225525,-0.04367584362626076,-0.2780340313911438,1.4867992401123047,0.3926490843296051,9.045293807983398
1713723114966521919,0.092678003013134,-0.001065264455974102,-0.2727077007293701,1.6579846143722534,0.41539397835731506,10.018536567687988
1713723114976521919,-0.04580637067556381,0.02876213937997818,-0.3057308793067932,1.2282254695892334,0.36750996112823486,11.322179794311523
1713723114986521919,-0.16085493564605713,0.06924218684434891,-0.3004045784473419,0.7098807692527771,0.29209259152412415,10.086771965026855
1713723114995521919,-0.1906823366880417,0.06711165606975555,-0.31318774819374084,-0.033518824726343155,-0.16639702022075653,10.091560363769531
1713723115005521919,-0.058589544147253036,-0.022370552644133568,-0.3206445872783661,-0.9720458984375,-1.3072340488433838,8.862137794494629
1713723115014521919,-0.044741105288267136,-0.06924218684434891,-0.25672873854637146,-0.3734954595565796,-1.3742717504501343,9.47265911102295
1713723115024521919,0.08202536404132843,-0.06178533658385277,-0.2918824553489685,0.4920084476470947,-0.8415618538856506,10.901997566223145
1713723115034521919,0.01065264455974102,0.05645901337265968,-0.2684466242790222,0.44173020124435425,-0.6392518281936646,10.465055465698242
1713723115043521919,-0.004261057823896408,0.13315805792808533,-0.29401299357414246,0.2537853717803955,-0.10654197633266449,10.51174259185791
1713723115053521919,0.052197955548763275,0.11078750342130661,-0.28442561626434326,-0.6177040338516235,-0.3387795388698578,8.384493827819824
1713723115062521919,0.022370552644133568,0.02556634694337845,-0.25246766209602356,-0.9349357485771179,-0.2238578498363495,8.760383605957031
1713723115072521919,0.06285060197114944,-0.05432848632335663,-0.2599245309829712,-0.456095427274704,0.31364041566848755,9.430760383605957
1713723115081521919,-0.02876213937997818,-0.06072007119655609,-0.24181503057479858,-0.10654197633266449,0.37828385829925537,9.99220085144043
1713723115091521919,-0.08948221057653427,-0.030892668291926384,-0.2460760921239853,0.07900865375995636,0.36750996112823486,10.600327491760254
1713723115101521919,-0.11185276508331299,0.027696875855326653,-0.2322276532649994,0.07781155407428741,0.026336219161748886,9.60912799835205
1713723115110521919,-0.04261057823896408,0.023435818031430244,-0.250337153673172,-0.20709843933582306,-0.5542576909065247,8.60356330871582
1713723115120521919,-0.03302319720387459,0.004261057823896408,-0.2087918221950531,-0.5542576909065247,-0.6260837316513062,9.390058517456055
1713723115129521919,0.012783173471689224,0.0,-0.21198762953281403,-0.6141127347946167,-0.48602294921875,11.208455085754395
1713723115141721900,-0.027696875855326653,0.030892668291926384,-0.19707392156124115,-0.7338228225708008,-0.7398083209991455,12.31098461151123
1713723115151721900,0.03302319720387459,-0.00532632227987051,-0.1896170675754547,-1.2198457717895508,-1.2413935661315918,10.857704162597656
1713723115160721900,0.04048004746437073,-0.029827404767274857,-0.14168016612529755,-0.9385270476341248,-0.8930371999740601,9.001001358032227
1713723115170721900,0.16511598229408264,-0.03621898964047432,-0.15552860498428345,-0.04189852997660637,0.08738835901021957,8.134300231933594
1713723115179721900,0.12250541150569916,0.01810949482023716,-0.14168016612529755,0.1256955862045288,0.790086567401886,8.20612621307373
1713723115189721900,0.05326322093605995,0.0649811327457428,-0.1438107043504715,-0.19871874153614044,1.180341362953186,9.81024169921875
1713723115198721900,-0.06604639440774918,0.08948221057653427,-0.12783172726631165,-0.6859387755393982,0.812831461429596,10.052055358886719
1713723115208721900,-0.18002969026565552,0.05752427875995636,-0.11185276508331299,-0.9840168952941895,0.23942016065120697,10.708066940307617
1713723115218721900,-0.11930961906909943,-0.06285060197114944,-0.09800432622432709,-1.6519991159439087,-0.7170634269714355,9.404423713684082
1713723115227721900,-0.11078750342130661,-0.14061491191387177,-0.049002163112163544,-1.2521674633026123,-0.8822633028030396,8.414422035217285
1713723115237721900,0.02130528911948204,-0.15126754343509674,-0.07563377171754837,0.31364041566848755,-0.010773907415568829,8.972270965576172
1713723115246721900,-0.003195793367922306,-0.04261057823896408,-0.07030745595693588,0.9421183466911316,0.23702596127986908,10.790666580200195
1713723115256721900,-0.03195793181657791,0.08628641813993454,-0.08202536404132843,0.6859387755393982,-0.3387795388698578,11.857283592224121
1713723115266721900,-0.05432848632335663,0.1438107043504715,-0.07989483326673508,-0.363918662071228,-1.1899182796478271,11.929109573364258
1713723115275721900,0.06391586363315582,0.029827404767274857,-0.06817692518234253,-1.6041151285171509,-1.9129670858383179,10.029311180114746
1713723115285721900,0.08735168725252151,-0.05006742849946022,-0.012783173471689224,-1.1635819673538208,-1.0295066833496094,9.182960510253906
1713723115294721900,0.25353294610977173,-0.1022653877735138,-0.04687163606286049,0.04189852997660637,0.325611412525177,8.560467720031738
1713723115304721900,0.14274543523788452,-0.04580637067556381,-0.04367584362626076,0.4189852774143219,0.7134720683097839,7.979874134063721
1713723115313721900,0.02130528911948204,-0.008522115647792816,-0.05006742849946022,0.36990416049957275,0.9445125460624695,10.196905136108398
1713723115324721900,-0.11504855751991272,0.027696875855326653,-0.030892668291926384,0.3172317147254944,0.6943184733390808,9.709684371948242
1713723115333721900,-0.23542344570159912,0.05006742849946022,-0.023435818031430244,0.3471592366695404,0.5446808934211731,9.311050415039062
1713723115342721900,-0.23329290747642517,0.0649811327457428,-0.037284255027770996,0.2932896912097931,0.39863458275794983,9.430760383605957
1713723115352721900,-0.09587380290031433,0.004261057823896408,-0.03834952041506767,-0.910993754863739,-0.5566518902778625,8.565256118774414
1713723115361721900,-0.08309062570333481,-0.03941478580236435,-0.002130528911948204,-1.0259153842926025,-0.8008604645729065,9.758766174316406
1713723115371721900,0.011717909015715122,-0.04048004746437073,-0.019174760207533836,0.35314473509788513,-0.7398083209991455,11.54244613647461
1713723115381721900,-0.07776430249214172,0.014913702383637428,-0.01810949482023716,0.7314286231994629,-1.3275848627090454,12.847286224365234
1713723115390721900,0.019174760207533836,-0.006391586735844612,-0.037284255027770996,-0.2968810200691223,-2.0242974758148193,11.965023040771484
1713723115400721900,0.058589544147253036,-0.037284255027770996,0.002130528911948204,-0.9684545993804932,-1.8519150018692017,8.664615631103516
1713723115409721900,0.21624867618083954,-0.04261057823896408,-0.01065264455974102,0.2106897532939911,0.026336219161748886,7.7763671875
1713723115419721900,0.23861923813819885,0.02130528911948204,-0.024501081556081772,0.7481880187988281,1.4305354356765747,8.463502883911133
1713723115428721900,0.16937704384326935,0.07350324839353561,-0.037284255027770996,0.45250412821769714,1.437718152999878,8.92917537689209
1713723115438721900,-0.02876213937997818,0.07776430249214172,-0.02130528911948204,0.1256955862045288,0.9971849918365479,9.865307807922363
1713723115448721900,-0.2045307755470276,0.03621898964047432,-0.022370552644133568,-0.1711854189634323,0.651222825050354,10.335768699645996
1713723115457721900,-0.30360037088394165,-0.007456851191818714,-0.003195793367922306,-0.15921440720558167,0.1951274424791336,9.928753852844238
1713723115467721900,-0.17363810539245605,-0.10439591109752655,-0.02556634694337845,-0.8379705548286438,-1.1228805780410767,8.574832916259766
1713723115477721900,-0.1342233121395111,-0.13102751970291138,0.03302319720387459,-0.5554547905921936,-1.5071499347686768,8.722076416015625
1713723115486721900,0.024501081556081772,-0.08522115647792816,-0.013848437927663326,0.7841010689735413,-0.6643909811973572,10.584765434265137
1713723115496721900,-0.009587380103766918,0.05006742849946022,-0.00532632227987051,1.2413935661315918,-0.5638344883918762,12.111068725585938
1713723115505721900,-0.013848437927663326,0.12676647305488586,-0.03941478580236435,0.773327112197876,-1.1899182796478271,13.801375389099121
1713723115515721900,0.09800432622432709,0.07350324839353561,-0.029827404767274857,-1.2342109680175781,-2.273294448852539,10.541669845581055
1713723115524721900,0.1022653877735138,-0.007456851191818714,0.019174760207533836,-1.1755529642105103,-1.5334861278533936,8.197746276855469
1713723115534721900,0.2737729549407959,-0.06604639440774918,-0.006391586735844612,0.2609679698944092,0.2932896912097931,7.38132381439209
1713723115543721900,0.1810949593782425,-0.020240023732185364,0.001065264455974102,0.3196259140968323,1.3910311460494995,8.209717750549316
1713723115553721900,0.09161274135112762,0.00532632227987051,-0.03195793181657791,0.27054479718208313,1.6711527109146118,9.513360023498535
1713723115563721900,-0.10333064943552017,0.022370552644133568,0.011717909015715122,0.1256955862045288,1.2054805755615234,9.509769439697266
1713723115573721900,-0.23968449234962463,0.014913702383637428,-0.007456851191818714,0.10773907601833344,0.9145850539207458,9.876081466674805
1713723115582721900,-0.29827404022216797,0.034088462591171265,0.023435818031430244,0.043095629662275314,0.3100491166114807,9.600749015808105
1713723115591721900,-0.1438107043504715,-0.024501081556081772,-0.015978965908288956,-0.8367734551429749,-1.0187327861785889,8.614337921142578
1713723115601721900,-0.09906959533691406,-0.055393751710653305,0.05432848632335663,-1.072602391242981,-1.4867992401123047,8.947131156921387
1713723115611721900,0.03834952041506767,-0.05006742849946022,0.03515372797846794,-0.1173158809542656,-0.8846575021743774,11.705251693725586
1713723115620721900,-0.004261057823896408,0.03941478580236435,0.047936901450157166,0.39384618401527405,-0.7242460250854492,12.946645736694336
1713723115630721900,0.003195793367922306,0.08628641813993454,0.02876213937997818,-0.14365209639072418,-1.1516109704971313,12.878410339355469
1713723115640721900,0.09161274135112762,0.02556634694337845,0.03834952041506767,-1.1875240802764893,-1.9405004978179932,9.534908294677734
1713723115649721900,0.11824434995651245,-0.030892668291926384,0.07989483326673508,-0.7553706169128418,-1.0797849893569946,8.037335395812988
1713723115658721900,0.2652508318424225,-0.06178533658385277,0.04687163606286049,0.22505494952201843,0.45848962664604187,7.819462776184082
1713723115668721900,0.16937704384326935,-0.00532632227987051,0.05965480953454971,0.24899697303771973,0.9445125460624695,8.303091049194336
1713723115678721900,0.03941478580236435,0.02876213937997818,0.04048004746437073,-0.08259996026754379,1.1635819673538208,10.075997352600098
1713723115687721900,-0.12889699637889862,0.047936901450157166,0.07669904083013535,-0.11252747476100922,0.872686505317688,9.920374870300293
1713723115698721900,-0.2652508318424225,0.03515372797846794,0.07456851005554199,0.015562310814857483,0.547075092792511,9.747992515563965
1713723115706721900,-0.21624867618083954,-0.011717909015715122,0.0649811327457428,-0.5530605912208557,-0.1256955862045288,8.90762710571289
1713723115716721900,-0.12144014239311218,-0.09693906456232071,0.08415588736534119,-0.9301473498344421,-0.8990226984024048,8.100781440734863
1713723115726721900,-0.024501081556081772,-0.1022653877735138,0.09800432622432709,0.2801215946674347,-0.568622887134552,10.067618370056152
1713723115735721900,0.03941478580236435,-0.01810949482023716,0.07350324839353561,1.1755529642105103,-0.547075092792511,12.082338333129883
1713723115745721900,-0.027696875855326653,0.09374327212572098,0.06817692518234253,0.8451532125473022,-1.765723705291748,12.270283699035645
1713723115754721900,0.030892668291926384,0.07776430249214172,0.05432848632335663,-0.2454056739807129,-2.627636432647705,12.038045883178711
1713723115764721900,0.09161274135112762,-0.02130528911948204,0.08096009492874146,-1.5071499347686768,-2.2385785579681396,9.261969566345215
1713723115774721900,0.20985709130764008,-0.058589544147253036,0.10546118021011353,-0.5099649429321289,-0.1735796183347702,8.792705535888672
1713723115783721900,0.3099919557571411,-0.04580637067556381,0.055393751710653305,0.6631938815116882,1.403002142906189,8.701725959777832
1713723115793721900,0.23968449234962463,0.019174760207533836,0.07030745595693588,0.25737667083740234,1.3527239561080933,7.38132381439209
1713723115802721900,0.0649811327457428,0.04261057823896408,0.07137271761894226,-0.17956513166427612,1.3120225667953491,9.14585018157959
1713723115812721900,-0.10333064943552017,0.03941478580236435,0.0884169489145279,-0.27892449498176575,0.8762778043746948,9.896432876586914
1713723115822721900,-0.287621408700943,0.024501081556081772,0.11398329585790634,-0.05746084079146385,0.3315969407558441,9.849745750427246
1713723115831721900,-0.3238403797149658,0.011717909015715122,0.092678003013134,0.28371289372444153,-0.09217676520347595,10.303446769714355
1713723115841721900,-0.13635385036468506,-0.07456851005554199,0.08522115647792816,-0.8463503122329712,-1.623268723487854,8.868123054504395
1713723115850721900,-0.08628641813993454,-0.1065264418721199,0.1342233121395111,-0.7745242118835449,-1.766920804977417,9.531316757202148
1713723115860721900,0.1203748807311058,-0.05752427875995636,0.10120011866092682,0.7003039717674255,-0.6787561774253845,10.979808807373047
1713723115869721900,0.047936901450157166,0.0788295716047287,0.11078750342130661,0.9768342971801758,-0.5877764821052551,12.49174690246582
1713723115879721900,0.019174760207533836,0.15126754343509674,0.09161274135112762,0.7960720658302307,-0.7182605266571045,12.867636680603027
1713723115889721900,0.10013485699892044,0.10759171098470688,0.1022653877735138,-1.092953085899353,-1.45806884765625,8.851363182067871
1713723115898721900,0.1065264418721199,0.03941478580236435,0.1438107043504715,-1.9045873880386353,-1.0211269855499268,7.535749912261963
1713723115908721900,0.24501082301139832,-0.013848437927663326,0.15020228922367096,-0.95528644323349,0.6129156351089478,7.636306285858154
1713723115917721900,0.15872439742088318,-0.009587380103766918,0.16085493564605713,-0.5351040959358215,1.5753847360610962,8.926780700683594
1713723115927721900,0.04367584362626076,0.008522115647792816,0.16405072808265686,-0.4082113802433014,1.456871747970581,10.474632263183594
1713723115937721900,-0.1342233121395111,0.03621898964047432,0.18855179846286774,-0.2777273952960968,0.6655880808830261,9.90122127532959
1713723115946721900,-0.25353294610977173,0.04261057823896408,0.1906823366880417,-0.4058171808719635,-0.005985504016280174,10.192116737365723
1713723115956721900,-0.1203748807311058,-0.022370552644133568,0.19707392156124115,-1.2497732639312744,-1.237802267074585,9.114726066589355
1713723115965721900,-0.07456851005554199,-0.08522115647792816,0.2364886999130249,-1.4987702369689941,-1.6388310194015503,8.772355079650879
1713723115975721900,0.08415588736534119,-0.08415588736534119,0.22477079927921295,-0.2537853717803955,-0.5111620426177979,10.529699325561523
1713723115984721900,0.07989483326673508,0.006391586735844612,0.21198762953281403,0.7661445140838623,0.05626373738050461,11.45386028289795
1713723115994721900,0.03834952041506767,0.08948221057653427,0.1949433982372284,0.6093243360519409,-0.3902548849582672,10.600327491760254
1713723116004721900,-0.03302319720387459,0.1395496428012848,0.21411815285682678,0.017956512048840523,-0.8104372620582581,11.012130737304688
1713723116014721900,0.05752427875995636,0.05326322093605995,0.19813919067382812,-1.4281412363052368,-1.357512354850769,10.056843757629395
1713723116023721900,0.041545312851667404,-0.026631610468029976,0.26738137006759644,-1.425747036933899,-1.114500880241394,8.619126319885254
1713723116032721900,0.15446333587169647,-0.07989483326673508,0.2364886999130249,-0.1280897855758667,-0.017956512048840523,8.706514358520508
1713723116042721900,0.09374327212572098,-0.026631610468029976,0.25246766209602356,0.28969839215278625,0.7062894701957703,8.968679428100586
1713723116051721900,0.026631610468029976,0.030892668291926384,0.2322276532649994,0.3387795388698578,1.0558428764343262,9.77791976928711
1713723116061721900,-0.06817692518234253,0.08415588736534119,0.24394555389881134,0.0933738648891449,0.6979097723960876,9.307458877563477
1713723116071721900,-0.15978966653347015,0.09161274135112762,0.23968449234962463,-0.14006079733371735,-0.06584054231643677,10.705672264099121
1713723116080721900,-0.07669904083013535,-0.009587380103766918,0.2364886999130249,-0.9481038451194763,-1.5203180313110352,11.015722274780273
1713723116090721900,-0.05965480953454971,-0.11504855751991272,0.28122982382774353,-1.2234370708465576,-2.1571757793426514,10.090362548828125
1713723116099721900,0.0649811327457428,-0.13635385036468506,0.26631611585617065,0.29448679089546204,-0.8283937573432922,10.074800491333008
1713723116109721900,0.13528858125209808,-0.03195793181657791,0.23968449234962463,1.3120225667953491,0.3423708379268646,9.058462142944336
1713723116119721900,0.13848437368869781,0.1065264418721199,0.20985709130764008,0.8415618538856506,0.4752490222454071,8.505401611328125
1713723116128721900,0.06178533658385277,0.20133498311042786,0.21092236042022705,0.26336216926574707,0.4381389021873474,9.799467086791992
1713723116138721900,-0.04367584362626076,0.16298545897006989,0.19813919067382812,-0.2298433631658554,0.090979665517807,11.05522632598877
1713723116147721900,-0.07030745595693588,0.00532632227987051,0.22157500684261322,-1.0271124839782715,-0.8152256608009338,10.662576675415039
1713723116157721900,-0.08096009492874146,-0.13209278881549835,0.23861923813819885,-1.07379949092865,-1.113303780555725,9.166200637817383
1713723116167721900,-0.015978965908288956,-0.15126754343509674,0.24288028478622437,0.12210428714752197,-0.16519992053508759,9.05367374420166
1713723116176721900,0.08309062570333481,-0.08415588736534119,0.20985709130764008,0.8738836050033569,0.36990416049957275,8.868123054504395
1713723116185721900,0.05326322093605995,0.03621898964047432,0.1992044448852539,1.0079588890075684,0.0933738648891449,9.45111083984375
1713723116196721900,-0.017044231295585632,0.11398329585790634,0.18429075181484222,1.1336544752120972,-0.2621650695800781,11.446678161621094
1713723116205721900,-0.07030745595693588,0.09587380290031433,0.1619201898574829,0.4082113802433014,-0.751779317855835,12.36724853515625
1713723116215721900,0.001065264455974102,-0.023435818031430244,0.16405072808265686,-0.7350199222564697,-1.5203180313110352,10.02691650390625
1713723116224721900,0.003195793367922306,-0.09480853378772736,0.1949433982372284,-0.3519476354122162,-1.091755986213684,8.489839553833008
1713723116233721900,0.15020228922367096,-0.09054747968912125,0.15233281254768372,0.6536170244216919,-0.04908113554120064,8.524555206298828
1713723116243721900,0.10333064943552017,-0.003195793367922306,0.14061491191387177,1.116895079612732,0.3579331338405609,8.796297073364258
1713723116253721900,0.03302319720387459,0.06072007119655609,0.11078750342130661,1.2868833541870117,0.6117185354232788,10.399214744567871
1713723116262721900,-0.06924218684434891,0.08309062570333481,0.09800432622432709,0.912190854549408,0.42018237709999084,10.224437713623047
1713723116272721900,-0.13209278881549835,0.05752427875995636,0.092678003013134,0.547075092792511,0.22864626348018646,9.900023460388184
1713723116282721900,-0.07243797928094864,-0.022370552644133568,0.0884169489145279,-0.24899697303771973,-0.46327802538871765,8.823830604553223
1713723116291721900,-0.06072007119655609,-0.06604639440774918,0.11078750342130661,-0.2693476974964142,-0.7445967197418213,9.295488357543945
1713723116301721900,0.020240023732185364,-0.07563377171754837,0.07350324839353561,0.9014168977737427,-0.4297592043876648,10.552443504333496
1713723116310721900,-0.013848437927663326,-0.030892668291926384,0.058589544147253036,1.702277421951294,-0.5015852451324463,11.098321914672852
1713723116321721900,-0.02130528911948204,0.007456851191818714,0.011717909015715122,1.9237409830093384,-0.667982280254364,11.438298225402832
1713723116330721900,0.04261057823896408,0.027696875855326653,-0.00532632227987051,0.9576806426048279,-1.0498573780059814,9.68813705444336
1713723116339721900,0.06604639440774918,0.03834952041506767,-0.002130528911948204,0.3447650372982025,-0.8786720037460327,8.652645111083984
1713723116349721900,0.14594122767448425,0.04580637067556381,-0.024501081556081772,0.5853822827339172,-0.14724339544773102,8.744821548461914
1713723116358721900,0.1065264418721199,0.0511326938867569,-0.02876213937997818,0.6380547285079956,0.4345476031303406,9.44991397857666
1713723116368721900,0.04580637067556381,0.023435818031430244,-0.04367584362626076,0.48123452067375183,0.6356605291366577,10.078392028808594
1713723116378721900,-0.044741105288267136,-0.007456851191818714,-0.04687163606286049,0.31603461503982544,0.416591078042984,9.589974403381348
1713723116387721900,-0.12144014239311218,-0.03941478580236435,-0.06285060197114944,0.333991140127182,0.34596213698387146,9.567230224609375
1713723116397721900,-0.12783172726631165,-0.04367584362626076,-0.06391586363315582,0.46567222476005554,0.21787235140800476,9.312247276306152
1713723116406721900,-0.07350324839353561,-0.03621898964047432,-0.08415588736534119,0.40222588181495667,-0.1735796183347702,8.845377922058105
1713723116416721900,-0.04687163606286049,-0.006391586735844612,-0.08628641813993454,0.47884032130241394,-0.4836287498474121,9.578003883361816
1713723116425721900,-0.011717909015715122,0.008522115647792816,-0.11185276508331299,0.8068459630012512,-0.9888052940368652,11.445481300354004
1713723116435721900,0.007456851191818714,-0.017044231295585632,-0.12144014239311218,0.5351040959358215,-1.7848773002624512,12.58152961730957
1713723116444721900,0.024501081556081772,-0.06072007119655609,-0.1161138266324997,0.30526071786880493,-1.9033902883529663,11.355698585510254
1713723116455721900,0.0788295716047287,-0.049002163112163544,-0.12250541150569916,0.9062053561210632,-0.9995791912078857,9.655815124511719
1713723116464721900,0.1619201898574829,0.017044231295585632,-0.14913702011108398,1.3838485479354858,-0.010773907415568829,8.282740592956543
1713723116473721900,0.17789916694164276,0.092678003013134,-0.17044231295585632,1.138442873954773,0.6607996821403503,7.773972988128662
1713723116483721900,0.1395496428012848,0.11078750342130661,-0.18002969026565552,0.7038952708244324,1.1875240802764893,8.757989883422852
1713723116493721900,0.047936901450157166,0.058589544147253036,-0.18748654425144196,0.20949263870716095,1.1563993692398071,9.166200637817383
1713723116502721900,-0.10759171098470688,-0.019174760207533836,-0.185356006026268,-0.017956512048840523,0.6416460275650024,9.973047256469727
1713723116512721900,-0.23435817658901215,-0.08309062570333481,-0.1906823366880417,0.19393032789230347,0.24899697303771973,10.915164947509766
1713723116521721900,-0.2034655064344406,-0.1203748807311058,-0.19813919067382812,0.28371289372444153,-0.6009446382522583,10.052055358886719
1713723116531721900,-0.09374327212572098,-0.1161138266324997,-0.20026971399784088,0.4213795065879822,-1.5203180313110352,9.001001358032227
1713723116540721900,0.008522115647792816,-0.02556634694337845,-0.20559602975845337,1.3192051649093628,-1.0570399761199951,9.750386238098145
1713723116550721900,0.15020228922367096,0.05326322093605995,-0.27057716250419617,1.6148890256881714,-0.6200982332229614,9.860519409179688
1713723116560721900,0.07456851005554199,0.11930961906909943,-0.258859246969223,1.2868833541870117,-0.5758054852485657,11.243170738220215
1713723116570721900,0.01065264455974102,0.09374327212572098,-0.2918824553489685,0.7445967197418213,-0.5243301391601562,12.683282852172852
1713723116579721900,0.027696875855326653,0.002130528911948204,-0.2822950780391693,-0.690727174282074,-1.2892775535583496,9.859322547912598
1713723116588721900,-0.002130528911948204,-0.092678003013134,-0.24501082301139832,-0.5099649429321289,-1.1707645654678345,8.20492935180664
1713723116598721900,0.10120011866092682,-0.11930961906909943,-0.2727077007293701,0.7062894701957703,0.08140285313129425,7.904456615447998
1713723116607721900,0.10120011866092682,-0.047936901450157166,-0.2695119082927704,1.236605167388916,0.9756371974945068,8.465896606445312
1713723116617721900,0.07350324839353561,0.023435818031430244,-0.3110572099685669,1.2952630519866943,1.0007762908935547,9.612719535827637
1713723116627721900,-0.047936901450157166,0.08522115647792816,-0.2918824553489685,0.7697358131408691,0.3603273630142212,10.740388870239258
1713723116637721900,-0.16618125140666962,0.09800432622432709,-0.3057308793067932,-0.09696516394615173,-0.48722004890441895,12.33372974395752
1713723116646721900,-0.06391586363315582,0.013848437927663326,-0.2865561246871948,-1.302445650100708,-1.8136078119277954,10.291476249694824
1713723116656721900,-0.026631610468029976,-0.08309062570333481,-0.23861923813819885,-1.5418658256530762,-1.968033790588379,7.8529815673828125
1713723116665721900,0.15233281254768372,-0.1065264418721199,-0.2460760921239853,-0.043095629662275314,-0.026336219161748886,8.950722694396973
1713723116674721900,0.21624867618083954,-0.02876213937997818,-0.2652508318424225,0.8631097078323364,1.3455413579940796,9.445125579833984
1713723116684721900,0.15126754343509674,0.0511326938867569,-0.2695119082927704,0.477643221616745,1.1336544752120972,9.154230117797852
1713723116694721900,-0.014913702383637428,0.09587380290031433,-0.2514024078845978,0.16519992053508759,0.7015010714530945,10.721235275268555
1713723116704721900,-0.15872439742088318,0.09374327212572098,-0.2556634545326233,-0.3447650372982025,0.333991140127182,10.740388870239258
1713723116713721900,-0.22370553016662598,0.05752427875995636,-0.23435817658901215,-1.0043675899505615,-0.3124433159828186,10.825383186340332
1713723116722721900,-0.09480853378772736,-0.08202536404132843,-0.23435817658901215,-1.5945383310317993,-1.5502455234527588,9.222464561462402
1713723116732721900,-0.05752427875995636,-0.1161138266324997,-0.15978966653347015,-0.9971849918365479,-1.6160861253738403,8.820239067077637
1713723116742721900,0.11291802674531937,-0.08202536404132843,-0.1992044448852539,0.09696516394615173,-0.6200982332229614,10.518924713134766
1713723116751721900,0.07137271761894226,0.0511326938867569,-0.16831177473068237,0.39384618401527405,-0.0347159244120121,10.494982719421387
1713723116761721900,0.04580637067556381,0.15126754343509674,-0.1810949593782425,0.07422025501728058,0.3196259140968323,10.176553726196289
1713723116770721900,0.022370552644133568,0.17470337450504303,-0.1619201898574829,-0.7206547260284424,0.24420857429504395,9.774328231811523
1713723116780721900,0.03834952041506767,0.07456851005554199,-0.1395496428012848,-1.7381904125213623,-0.15322890877723694,9.23682975769043
1713723116789721900,0.011717909015715122,-0.011717909015715122,-0.10546118021011353,-1.8698714971542358,-0.02274491637945175,9.069235801696777
1713723116799721900,0.029827404767274857,-0.06817692518234253,-0.08735168725252151,-1.1504138708114624,0.47405192255973816,9.373299598693848
1713723116809721900,-0.027696875855326653,-0.07030745595693588,-0.08202536404132843,-0.7649474143981934,0.6356605291366577,9.010578155517578
1713723116819721900,-0.06072007119655609,-0.027696875855326653,-0.06285060197114944,-0.4225766062736511,0.7362170219421387,9.331400871276855
1713723116828721900,-0.08948221057653427,0.015978965908288956,-0.07030745595693588,-0.14245499670505524,0.5063736438751221,9.495404243469238
1713723116838721900,-0.08522115647792816,0.023435818031430244,-0.05752427875995636,-0.41778817772865295,-0.27892449498176575,10.67215347290039
1713723116847721900,-0.04261057823896408,-0.037284255027770996,-0.04687163606286049,-1.0690110921859741,-1.5370774269104004,11.815384864807129
1713723116857721900,-0.017044231295585632,-0.0788295716047287,0.003195793367922306,-1.0977414846420288,-1.8495208024978638,11.279084205627441
1713723116866721900,0.05006742849946022,-0.04580637067556381,0.002130528911948204,-0.2801215946674347,-0.8762778043746948,10.267534255981445
1713723116876721900,0.11398329585790634,0.03941478580236435,-0.002130528911948204,0.16998831927776337,0.020350713282823563,8.785523414611816
1713723116885721900,0.13315805792808533,0.1065264418721199,-0.004261057823896408,-0.15322890877723694,0.48722004890441895,7.918821811676025
1713723116895721900,0.10759171098470688,0.1065264418721199,0.001065264455974102,-0.6356605291366577,0.7709329128265381,8.901641845703125
1713723116905721900,0.030892668291926384,0.05006742849946022,0.01810949482023716,-0.9744400978088379,0.7266402244567871,9.907206535339355
1713723116914721900,-0.08415588736534119,-0.030892668291926384,0.03515372797846794,-0.9804255962371826,0.50876784324646,10.370484352111816
1713723116924721900,-0.15446333587169647,-0.09161274135112762,0.05432848632335663,-0.6440402269363403,0.2346317619085312,10.016142845153809
1713723116933721900,-0.12676647305488586,-0.11930961906909943,0.055393751710653305,-0.31124621629714966,-0.21308395266532898,8.899247169494629
1713723116943721900,-0.0884169489145279,-0.08735168725252151,0.06178533658385277,0.16879121959209442,-0.27653029561042786,8.737639427185059
1713723116952721900,-0.012783173471689224,-0.020240023732185364,0.03941478580236435,0.6823474764823914,-0.15682020783424377,9.68694019317627
1713723116962721900,-0.015978965908288956,0.05752427875995636,0.030892668291926384,0.8403647541999817,-0.4704606235027313,11.258733749389648
1713723116972721900,0.019174760207533836,0.047936901450157166,0.007456851191818714,0.35673603415489197,-1.4197615385055542,12.293028831481934
1713723116981721900,0.03302319720387459,-0.020240023732185364,0.03834952041506767,-0.6200982332229614,-1.9967641830444336,11.39639949798584
1713723116991721900,0.0649811327457428,-0.05326322093605995,0.05326322093605995,-0.38546645641326904,-0.9361328482627869,10.075997352600098
1713723117001721900,0.15872439742088318,-0.017044231295585632,0.03195793181657791,0.4381389021873474,0.25977087020874023,8.061277389526367
1713723117010721900,0.15126754343509674,0.055393751710653305,0.023435818031430244,0.4297592043876648,0.8008604645729065,7.586028099060059
1713723117020721900,0.09800432622432709,0.09374327212572098,0.022370552644133568,0.008379706181585789,1.1061211824417114,9.182960510253906
1713723117029721900,-0.013848437927663326,0.07989483326673508,0.027696875855326653,-0.4106055796146393,0.8595184087753296,10.129867553710938
1713723117039721900,-0.1438107043504715,0.020240023732185364,0.044741105288267136,-0.6440402269363403,0.5386953949928284,10.442310333251953
1713723117048721900,-0.16298545897006989,-0.06391586363315582,0.055393751710653305,-1.0462660789489746,-0.0011971008498221636,9.81383228302002
1713723117058721900,-0.11504855751991272,-0.13102751970291138,0.07243797928094864,-1.0055646896362305,-0.6572083830833435,8.827421188354492
1713723117067721900,-0.055393751710653305,-0.12144014239311218,0.07669904083013535,0.2106897532939911,-0.4752490222454071,9.48343276977539
1713723117077721900,0.02556634694337845,-0.049002163112163544,0.044741105288267136,1.136048674583435,-0.2693476974964142,10.317811965942383
1713723117087721900,0.004261057823896408,0.0511326938867569,0.03302319720387459,1.159990668296814,-0.5746083855628967,10.591948509216309
1713723117096721900,-0.013848437927663326,0.08735168725252151,0.01065264455974102,0.45489832758903503,-0.7972691655158997,12.09550666809082
1713723117106721900,0.047936901450157166,0.02130528911948204,0.014913702383637428,-0.7398083209991455,-1.4413094520568848,11.009736061096191
1713723117116721900,0.04580637067556381,-0.03941478580236435,0.058589544147253036,-0.6392518281936646,-1.3215993642807007,9.501389503479004
1713723117125721900,0.1438107043504715,-0.0649811327457428,0.03195793181657791,0.21787235140800476,-0.18914192914962769,8.644265174865723
1713723117135721900,0.11504855751991272,-0.020240023732185364,0.04261057823896408,0.4213795065879822,0.7601590156555176,8.310274124145508
1713723117144721900,0.08096009492874146,0.027696875855326653,0.029827404767274857,0.1735796183347702,1.1994950771331787,9.17817211151123
1713723117154721900,-0.012783173471689224,0.07243797928094864,0.044741105288267136,-0.02992752008140087,0.9672574996948242,9.380481719970703
1713723117164721900,-0.11824434995651245,0.06711165606975555,0.04580637067556381,-0.08978256583213806,0.750582218170166,9.809043884277344
1713723117173721900,-0.1672465205192566,0.026631610468029976,0.06178533658385277,-0.5231330394744873,0.2908954918384552,10.535684585571289
1713723117183721900,-0.09374327212572098,-0.06178533658385277,0.06391586363315582,-1.3479355573654175,-0.9050082564353943,9.81024169921875
1713723117193721900,-0.08735168725252151,-0.11504855751991272,0.09587380290031433,-0.6236895322799683,-1.3192051649093628,9.513360023498535
1713723117202721900,0.013848437927663326,-0.10439591109752655,0.07137271761894226,1.036689281463623,-0.8583213090896606,10.427945137023926
1713723117211721900,-0.002130528911948204,-0.002130528911948204,0.05326322093605995,1.3670891523361206,-0.5590460896492004,10.836156845092773
1713723117221721900,0.023435818031430244,0.09480853378772736,0.02876213937997818,0.9564835429191589,-0.39863458275794983,10.776301383972168
1713723117230721900,0.08415588736534119,0.11078750342130661,0.020240023732185364,-0.2777273952960968,-0.7553706169128418,9.589974403381348
1713723117240721900,0.07989483326673508,0.06924218684434891,0.05006742849946022,-0.9792284965515137,-0.5841851830482483,9.311050415039062
1713723117249721900,0.11504855751991272,0.003195793367922306,0.0511326938867569,-0.5949591398239136,0.22505494952201843,9.14704704284668
1713723117260721900,0.055393751710653305,-0.037284255027770996,0.06072007119655609,-0.30526071786880493,0.7481880187988281,9.548076629638672
1713723117269721900,-0.001065264455974102,-0.058589544147253036,0.05965480953454971,-0.11252747476100922,0.7457938194274902,9.63187313079834
1713723117278721900,-0.07350324839353561,-0.037284255027770996,0.07243797928094864,0.12449848651885986,0.4991910457611084,9.015366554260254
1713723117288721900,-0.11291802674531937,0.001065264455974102,0.0649811327457428,0.20949263870716095,0.42856210470199585,9.332597732543945
1713723117298721900,-0.09800432622432709,0.044741105288267136,0.06711165606975555,-0.03950432687997818,0.031124621629714966,10.105925559997559
1713723117307721900,-0.023435818031430244,0.01810949482023716,0.052197955548763275,-0.7948749661445618,-1.0522515773773193,10.620678901672363
1713723117317721900,-0.015978965908288956,-0.04261057823896408,0.08096009492874146,-0.6272808313369751,-1.5598224401474,10.740388870239258
1713723117326721900,0.030892668291926384,-0.08948221057653427,0.06817692518234253,0.5530605912208557,-0.8355763554573059,10.63504409790039
1713723117336721900,0.03834952041506767,-0.05326322093605995,0.052197955548763275,0.9876081943511963,-0.047884032130241394,9.806650161743164
1713723117346721900,0.05326322093605995,0.026631610468029976,0.041545312851667404,0.7661445140838623,0.208295539021492,8.729259490966797
1713723117355721900,0.03834952041506767,0.09587380290031433,0.03515372797846794,0.3292027413845062,0.28371289372444153,8.859743118286133
1713723117365721900,0.00532632227987051,0.10865697264671326,0.03515372797846794,-0.1604115068912506,0.3208230137825012,9.926360130310059
1713723117375721900,-0.013848437927663326,0.044741105288267136,0.044741105288267136,-0.8212111592292786,-0.008379706181585789,10.564414978027344
1713723117384721900,-0.02876213937997818,-0.05752427875995636,0.06711165606975555,-1.07379949092865,-0.3423708379268646,9.870096206665039
1713723117393721900,-0.027696875855326653,-0.12250541150569916,0.07563377171754837,-0.4453215003013611,-0.04668693244457245,9.333795547485352
1713723117403721900,0.00532632227987051,-0.10439591109752655,0.06924218684434891,0.2561795711517334,0.28371289372444153,9.226056098937988
1713723117412721900,0.003195793367922306,-0.02130528911948204,0.06178533658385277,0.4572925269603729,0.1951274424791336,8.993818283081055
1713723117422721900,-0.03515372797846794,0.06711165606975555,0.05645901337265968,0.35913026332855225,0.028730420395731926,10.128669738769531
1713723117432721900,-0.05645901337265968,0.08628641813993454,0.04580637067556381,-0.09457096457481384,-0.47884032130241394,12.245144844055176
1713723117442721900,0.004261057823896408,-0.008522115647792816,0.055393751710653305,-0.9648632407188416,-1.5358803272247314,11.043254852294922
1713723117451721900,-0.01065264455974102,-0.09480853378772736,0.092678003013134,-0.45489832758903503,-1.382651448249817,9.254786491394043
1713723117460721900,0.11717908829450607,-0.11185276508331299,0.06817692518234253,0.7254431247711182,-0.2454056739807129,8.522160530090332
1713723117470721900,0.092678003013134,-0.019174760207533836,0.06711165606975555,0.851138710975647,0.5315127968788147,8.44315242767334
1713723117480721900,0.055393751710653305,0.07776430249214172,0.04367584362626076,0.608127236366272,0.851138710975647,10.020931243896484
1713723117489721900,-0.03834952041506767,0.12889699637889862,0.0511326938867569,0.1975216418504715,0.3687070608139038,10.471040725708008
1713723117499721900,-0.1203748807311058,0.07989483326673508,0.05006742849946022,-0.4908113479614258,-0.14365209639072418,11.925518035888672
1713723117508721900,-0.05006742849946022,-0.05326322093605995,0.07776430249214172,-1.3958195447921753,-1.0019733905792236,9.84735107421875
1713723117518721900,-0.03621898964047432,-0.11824434995651245,0.10120011866092682,-0.8966284990310669,-0.8487445116043091,7.976282596588135
1713723117528721900,0.11504855751991272,-0.10013485699892044,0.08415588736534119,0.37229835987091064,0.16639702022075653,8.145073890686035
1713723117537721900,0.06817692518234253,0.001065264455974102,0.07350324839353561,0.6991068720817566,0.5817909836769104,9.185354232788086
1713723117547721900,0.004261057823896408,0.09693906456232071,0.06817692518234253,0.5015852451324463,0.4920084476470947,11.502942085266113
1713723117557721900,-0.10972223430871964,0.1203748807311058,0.0649811327457428,0.25977087020874023,-0.30885201692581177,12.161347389221191
1713723117566721900,-0.05006742849946022,-0.007456851191818714,0.06604639440774918,-0.7481880187988281,-1.437718152999878,10.429141998291016
1713723117575721900,-0.037284255027770996,-0.11078750342130661,0.10333064943552017,-1.1767500638961792,-1.4053963422775269,7.978676795959473
1713723117585721900,0.12144014239311218,-0.12783172726631165,0.0884169489145279,0.19393032789230347,0.19393032789230347,8.20851993560791
1713723117595721900,0.14487595856189728,-0.04687163606286049,0.06604639440774918,0.9481038451194763,1.235408067703247,8.968679428100586
1713723117604721900,0.092678003013134,0.04687163606286049,0.06072007119655609,0.6093243360519409,0.9397241473197937,10.159794807434082
1713723117614721900,-0.04687163606286049,0.11185276508331299,0.07989483326673508,0.46327802538871765,0.14006079733371735,11.30302619934082
1713723117623721900,-0.17896442115306854,0.11824434995651245,0.0788295716047287,0.25977087020874023,-0.4596867263317108,11.154585838317871
1713723117633721900,-0.09054747968912125,0.020240023732185364,0.07350324839353561,-0.8607155084609985,-1.181538462638855,8.968679428100586
1713723117640622003,-0.04367584362626076,-0.06178533658385277,0.11078750342130661,-1.3850456476211548,-1.0079588890075684,7.538144111633301
1713723117650622003,0.1257012039422989,-0.08415588736534119,0.10013485699892044,-0.16519992053508759,0.29209259152412415,8.663418769836426
1713723117660622003,0.10865697264671326,-0.01810949482023716,0.08522115647792816,0.651222825050354,0.8978255987167358,11.508927345275879
1713723117669622003,0.02556634694337845,0.05326322093605995,0.06817692518234253,0.6117185354232788,0.07302314788103104,11.887210845947266
1713723117679622003,-0.14700649678707123,0.08309062570333481,0.07669904083013535,0.5195417404174805,-0.772130012512207,10.682928085327148
1713723117689622003,-0.08415588736534119,-0.011717909015715122,0.044741105288267136,-0.4321534037590027,-1.2856862545013428,9.923965454101562
1713723117698622003,-0.023435818031430244,-0.08735168725252151,0.10120011866092682,-1.07379949092865,-1.258152961730957,7.837419033050537
1713723117708622003,0.14168016612529755,-0.09800432622432709,0.08522115647792816,0.03232172131538391,0.2106897532939911,8.043320655822754
1713723117717622003,0.19707392156124115,-0.02130528911948204,0.06711165606975555,0.8439561128616333,1.280897855758667,9.785101890563965
1713723117727622003,0.12676647305488586,0.058589544147253036,0.06285060197114944,0.5518634915351868,0.9672574996948242,10.36449909210205
1713723117736622003,-0.04367584362626076,0.10120011866092682,0.0788295716047287,0.47405192255973816,0.243011474609375,11.219228744506836
1713723117747622003,-0.1906823366880417,0.092678003013134,0.07776430249214172,0.24061726033687592,-0.1604115068912506,10.800243377685547
1713723117756622003,-0.17789916694164276,0.03834952041506767,0.0788295716047287,-0.8271966576576233,-0.5746083855628967,9.127893447875977
1713723117765622003,-0.06817692518234253,-0.06604639440774918,0.08948221057653427,-1.48081374168396,-0.9277531504631042,7.621941089630127
1713723117775622003,0.026631610468029976,-0.08522115647792816,0.1161138266324997,-0.17836801707744598,-0.3471592366695404,9.567230224609375
1713723117784622003,0.1065264418721199,-0.041545312851667404,0.07350324839353561,0.9085995554924011,-0.05626373738050461,11.727996826171875
1713723117794622003,0.027696875855326653,0.047936901450157166,0.07243797928094864,1.0965443849563599,-0.7254431247711182,10.878055572509766
1713723117804622003,-0.0788295716047287,0.08948221057653427,0.055393751710653305,0.9780313968658447,-0.7422025203704834,11.076773643493652
1713723117813622003,0.006391586735844612,0.04367584362626076,0.03302319720387459,-0.2561795711517334,-0.6919242739677429,9.343372344970703
1713723117823622003,0.023435818031430244,-0.008522115647792816,0.07456851005554199,-0.6763619780540466,-0.48123452067375183,7.924807548522949
1713723117832622003,0.14700649678707123,-0.049002163112163544,0.04580637067556381,0.015562310814857483,0.43095630407333374,8.425195693969727
1713723117842622003,0.11185276508331299,-0.023435818031430244,0.05965480953454971,0.4704606235027313,0.9493009448051453,9.613916397094727
1713723117851622003,0.01810949482023716,0.00532632227987051,0.02876213937997818,0.6476315259933472,0.790086567401886,10.657788276672363
1713723117861622003,-0.1161138266324997,0.041545312851667404,0.04048004746437073,0.812831461429596,0.2454056739807129,10.521319389343262
1713723117871622003,-0.1906823366880417,0.041545312851667404,0.02130528911948204,0.6715735793113708,-0.19871874153614044,10.583568572998047
1713723117880622003,-0.058589544147253036,-0.015978965908288956,0.02130528911948204,-0.7852981686592102,-1.2342109680175781,9.039308547973633
1713723117890622003,-0.022370552644133568,-0.05432848632335663,0.05645901337265968,-0.8439561128616333,-1.334767460823059,9.070432662963867
1713723117899622003,0.12783172726631165,-0.05965480953454971,0.024501081556081772,0.4513069987297058,-0.35673603415489197,10.205284118652344
1713723117909622003,0.06391586363315582,0.012783173471689224,0.024501081556081772,0.9983820915222168,-0.02992752008140087,11.176133155822754
1713723117918622003,0.00532632227987051,0.05645901337265968,-0.014913702383637428,1.1025298833847046,-0.06344634294509888,11.227608680725098
1713723117929622003,-0.04580637067556381,0.07989483326673508,-0.00532632227987051,0.606930136680603,-0.2059013396501541,9.66658878326416
1713723117938622003,0.017044231295585632,0.020240023732185364,-0.029827404767274857,-0.5363011956214905,-0.45010989904403687,8.474276542663574
1713723117947622003,0.03195793181657791,-0.020240023732185364,0.011717909015715122,-0.8678981065750122,-0.11252747476100922,8.622716903686523
1713723117957622003,0.10333064943552017,-0.05432848632335663,-0.014913702383637428,-0.10055647045373917,0.4884171485900879,9.173383712768555
1713723117967622003,0.041545312851667404,-0.03621898964047432,-0.001065264455974102,0.4213795065879822,0.4991910457611084,9.635464668273926
1713723117976622003,-0.0511326938867569,-0.020240023732185364,-0.011717909015715122,0.6727706789970398,0.33518823981285095,10.885237693786621
1713723117985622003,-0.12676647305488586,0.014913702383637428,-0.008522115647792816,0.43095630407333374,0.06823474913835526,10.508151054382324
1713723117996622003,-0.09800432622432709,0.020240023732185364,-0.011717909015715122,-0.2669534981250763,-0.507570743560791,9.962272644042969
1713723118005622003,-0.008522115647792816,-0.017044231295585632,-0.003195793367922306,-0.9062053561210632,-0.9876081943511963,9.342174530029297
1713723118014622003,0.055393751710653305,-0.017044231295585632,0.02130528911948204,-0.33758243918418884,-0.45489832758903503,9.858125686645508
1713723118024622003,0.1203748807311058,-0.007456851191818714,-0.011717909015715122,0.3663128614425659,-0.09696516394615173,10.429141998291016
1713723118034622003,0.05432848632335663,0.02556634694337845,0.0,0.3902548849582672,-0.3842693567276001,10.052055358886719
1713723118043622003,-0.03621898964047432,0.030892668291926384,-0.012783173471689224,0.295683890581131,-0.152031809091568,10.492588996887207
1713723118053622003,-0.05006742849946022,0.01065264455974102,-0.008522115647792816,0.20350714027881622,0.0011971008498221636,9.889249801635742
1713723118062622003,-0.023435818031430244,-0.023435818031430244,-0.006391586735844612,-0.2238578498363495,-0.24420857429504395,8.526948928833008
1713723118072622003,-0.003195793367922306,-0.02876213937997818,-0.001065264455974102,-0.15442600846290588,-0.017956512048840523,8.876502990722656
1713723118081622003,0.04367584362626076,-0.017044231295585632,-0.006391586735844612,0.424970805644989,0.27054479718208313,9.625887870788574
1713723118091622003,0.020240023732185364,0.00532632227987051,-0.009587380103766918,0.33039984107017517,0.2238578498363495,9.824606895446777
1713723118101622003,-0.026631610468029976,0.023435818031430244,-0.01065264455974102,-0.0071826050989329815,0.13407529890537262,10.183736801147461
1713723118110622003,-0.06711165606975555,0.01810949482023716,-0.012783173471689224,-0.14844051003456116,0.05386953800916672,10.441113471984863
1713723118120622003,-0.03302319720387459,-0.017044231295585632,-0.006391586735844612,-0.6200982332229614,-0.29209259152412415,9.836577415466309
1713723118129622003,-0.02556634694337845,-0.037284255027770996,0.007456851191818714,-0.7493851184844971,-0.36990416049957275,9.174580574035645
1713723118139622003,0.026631610468029976,-0.034088462591171265,0.001065264455974102,-0.061052143573760986,-0.09457096457481384,9.527725219726562
1713723118149622003,-0.002130528911948204,-0.014913702383637428,-0.001065264455974102,0.4213795065879822,-0.20350714027881622,10.582371711730957
1713723118158622003,-0.03941478580236435,-0.007456851191818714,-0.007456851191818714,0.5937620401382446,-0.5255272388458252,11.371260643005371
1713723118168622003,-0.009587380103766918,-0.03621898964047432,-0.013848437927663326,0.23822306096553802,-1.0642226934432983,10.431536674499512
1713723118178622003,0.007456851191818714,-0.055393751710653305,0.003195793367922306,0.10773907601833344,-0.9085995554924011,9.334992408752441
1713723118187622003,0.1065264418721199,-0.030892668291926384,-0.009587380103766918,0.45848962664604187,-0.031124621629714966,8.677783966064453
1713723118197622003,0.1203748807311058,0.03941478580236435,-0.020240023732185364,0.5111620426177979,0.6703764796257019,8.950722694396973
1713723118206622003,0.10759171098470688,0.07669904083013535,-0.027696875855326653,0.19393032789230347,0.8834604024887085,9.20211410522461
1713723118216622003,0.009587380103766918,0.07030745595693588,-0.020240023732185364,-0.25977087020874023,0.6811503767967224,9.642646789550781
1713723118225622003,-0.09800432622432709,0.015978965908288956,-0.020240023732185364,-0.4728548228740692,0.4537012279033661,10.42315673828125
1713723118235622003,-0.16085493564605713,-0.05326322093605995,-0.004261057823896408,-0.5339069962501526,0.09576806426048279,10.490194320678711
1713723118245622003,-0.11824434995651245,-0.11717908829450607,0.003195793367922306,-0.6344634294509888,-0.4836287498474121,9.258378028869629
1713723118254622003,-0.0788295716047287,-0.09906959533691406,0.02130528911948204,-0.03711012750864029,-0.4967968463897705,8.810662269592285
1713723118264622003,0.014913702383637428,-0.02130528911948204,0.001065264455974102,0.851138710975647,-0.2825157940387726,9.828197479248047
1713723118273622003,0.00532632227987051,0.07243797928094864,-0.00532632227987051,1.1049240827560425,-0.6009446382522583,10.801441192626953
1713723118283622003,0.011717909015715122,0.08096009492874146,-0.024501081556081772,0.46567222476005554,-1.1252747774124146,12.178106307983398
1713723118292622003,0.047936901450157166,0.00532632227987051,-0.01065264455974102,-0.4129997789859772,-1.4520833492279053,11.128249168395996
1713723118303622003,0.05965480953454971,-0.04580637067556381,0.01810949482023716,-0.05985504016280174,-0.6033388376235962,9.90241813659668
1713723118311622003,0.16618125140666962,-0.03621898964047432,-0.013848437927663326,0.47405192255973816,0.2992752194404602,8.3521728515625
1713723118321622003,0.14061491191387177,0.03941478580236435,-0.012783173471689224,0.5003881454467773,0.6584054827690125,7.389703273773193
1713723118331622003,0.08096009492874146,0.07989483326673508,-0.026631610468029976,0.29807811975479126,1.2186486721038818,8.752004623413086
1713723118340622003,-0.015978965908288956,0.07989483326673508,-0.023435818031430244,-0.21428105235099792,1.279700756072998,9.351751327514648
1713723118350622003,-0.14487595856189728,0.04367584362626076,-0.017044231295585632,-0.5446808934211731,0.8523358106613159,9.81024169921875
1713723118359622003,-0.2322276532649994,-0.014913702383637428,-0.006391586735844612,-0.5506663918495178,0.3280056416988373,10.430339813232422
1713723118369622003,-0.16618125140666962,-0.09693906456232071,0.004261057823896408,-0.7876923680305481,-0.7050923705101013,9.576807022094727
1713723118378622003,-0.1299622654914856,-0.1203748807311058,0.029827404767274857,-0.7015010714530945,-1.0773907899856567,9.402029991149902
1713723118388622003,-0.017044231295585632,-0.06391586363315582,0.017044231295585632,0.44173020124435425,-0.5746083855628967,10.813411712646484
1713723118398622003,-0.003195793367922306,0.03941478580236435,0.0,1.334767460823059,-0.750582218170166,11.712434768676758
1713723118407622003,0.04367584362626076,0.07563377171754837,-0.022370552644133568,0.8882488012313843,-1.501164436340332,11.739968299865723
1713723118417622003,0.08309062570333481,0.04687163606286049,-0.00532632227987051,-0.07182604819536209,-1.7262194156646729,10.226832389831543
1713723118427622003,0.13102751970291138,0.02556634694337845,0.013848437927663326,-0.2238578498363495,-0.4668693244457245,9.59835433959961
1713723118436622003,0.2130528837442398,0.041545312851667404,-0.009587380103766918,0.0347159244120121,0.7948749661445618,8.798690795898438
1713723118445622003,0.1757686287164688,0.06391586363315582,-0.00532632227987051,0.09935937076807022,1.0486602783203125,7.4770917892456055
1713723118455622003,0.058589544147253036,0.041545312851667404,-0.007456851191818714,-0.02513911761343479,1.2617442607879639,8.364143371582031
1713723118465622003,-0.08628641813993454,0.004261057823896408,-0.007456851191818714,-0.2669534981250763,1.1851298809051514,9.670180320739746
1713723118475622003,-0.22903186082839966,-0.02876213937997818,-0.003195793367922306,-0.25019407272338867,0.7745242118835449,10.020931243896484
1713723118484622003,-0.287621408700943,-0.044741105288267136,0.001065264455974102,0.04668693244457245,0.1759738177061081,10.146626472473145
1713723118494622003,-0.16085493564605713,-0.08202536404132843,-0.004261057823896408,-0.4908113479614258,-1.1324573755264282,9.308655738830566
1713723118503622003,-0.09161274135112762,-0.07137271761894226,0.026631610468029976,-0.6189011335372925,-1.5490484237670898,9.522936820983887
1713723118513622003,0.04367584362626076,-0.01810949482023716,0.004261057823896408,0.6200982332229614,-0.7709329128265381,11.281477928161621
1713723118523622003,0.03941478580236435,0.07137271761894226,-0.008522115647792816,1.2665326595306396,-0.5889735817909241,12.202048301696777
1713723118532622003,0.037284255027770996,0.09906959533691406,-0.03195793181657791,0.6045359373092651,-0.8571242094039917,11.993753433227539
1713723118542622003,0.07350324839353561,0.04580637067556381,-0.01810949482023716,-0.456095427274704,-1.1180921792984009,9.289502143859863
1713723118551622003,0.08628641813993454,-0.008522115647792816,0.008522115647792816,-0.3998316824436188,-0.3926490843296051,8.3521728515625
1713723118561622003,0.1672465205192566,-0.02556634694337845,-0.01065264455974102,0.1496376097202301,0.6177040338516235,8.529343605041504
1713723118570622003,0.11291802674531937,0.006391586735844612,-0.00532632227987051,0.32441431283950806,0.93254154920578,7.976282596588135
1713723118580622003,0.009587380103766918,0.026631610468029976,-0.01065264455974102,0.243011474609375,1.1013327836990356,9.135076522827148
1713723118590622003,-0.11717908829450607,0.034088462591171265,-0.012783173471689224,-0.008379706181585789,0.8990226984024048,10.079588890075684
1713723118599622003,-0.22796659171581268,0.029827404767274857,-0.006391586735844612,-0.15921440720558167,0.5255272388458252,10.228029251098633
1713723118609622003,-0.1906823366880417,-0.013848437927663326,-0.007456851191818714,-0.5614402890205383,-0.29209259152412415,9.834183692932129
1713723118618622003,-0.10759171098470688,-0.07669904083013535,0.013848437927663326,-0.9720458984375,-0.9959878921508789,9.181763648986816
1713723118628622003,-0.023435818031430244,-0.06924218684434891,0.02876213937997818,-0.0454898327589035,-0.5171475410461426,10.219649314880371
1713723118638622003,0.05645901337265968,-0.004261057823896408,-0.003195793367922306,0.9241618514060974,-0.3842693567276001,11.154585838317871
1713723118647622003,0.001065264455974102,0.08202536404132843,-0.007456851191818714,0.9289502501487732,-1.0007762908935547,10.981005668640137
1713723118656622003,-0.015978965908288956,0.08309062570333481,-0.029827404767274857,0.2059013396501541,-1.1468225717544556,11.21563720703125
1713723118667622003,0.04367584362626076,0.009587380103766918,-0.013848437927663326,-0.6105214357376099,-0.993593692779541,9.467870712280273
1713723118676622003,0.07669904083013535,-0.03302319720387459,0.01065264455974102,-0.15921440720558167,-0.10295066982507706,8.96269416809082
1713723118685622003,0.16298545897006989,-0.03515372797846794,-0.023435818031430244,0.3232172131538391,0.6859387755393982,8.550890922546387
1713723118695622003,0.10120011866092682,0.006391586735844612,-0.008522115647792816,0.26575639843940735,0.7433996200561523,7.994239330291748
1713723118704622003,-0.019174760207533836,0.030892668291926384,-0.024501081556081772,0.17956513166427612,0.8224082589149475,10.068815231323242
1713723118714622003,-0.14168016612529755,0.03834952041506767,-0.022370552644133568,0.10055647045373917,0.5985504388809204,10.562020301818848
1713723118724622003,-0.23755396902561188,0.022370552644133568,-0.011717909015715122,0.07422025501728058,0.08858545869588852,10.579977035522461
1713723118733622003,-0.13741911947727203,-0.047936901450157166,-0.012783173471689224,-0.6943184733390808,-1.0211269855499268,9.424775123596191
1713723118743622003,-0.09587380290031433,-0.07456851005554199,0.03195793181657791,-0.9612719416618347,-1.3215993642807007,8.876502990722656
1713723118752622003,0.037284255027770996,-0.044741105288267136,0.008522115647792816,0.1364694982767105,-0.47884032130241394,10.319008827209473
1713723118762622003,0.027696875855326653,0.047936901450157166,0.003195793367922306,0.9493009448051453,-0.25258827209472656,11.444283485412598
1713723118772622003,-0.001065264455974102,0.09480853378772736,-0.019174760207533836,0.8786720037460327,-0.6129156351089478,11.907562255859375
1713723118781622003,0.04048004746437073,0.058589544147253036,-0.01810949482023716,-0.23104046285152435,-1.1635819673538208,9.895235061645508
1713723118791622003,0.037284255027770996,0.00532632227987051,0.013848437927663326,-0.7254431247711182,-0.7374141216278076,8.6275053024292
1713723118800622003,0.13848437368869781,-0.022370552644133568,0.0,-0.2106897532939911,0.34596213698387146,8.057685852050781
1713723118810622003,0.092678003013134,0.003195793367922306,0.001065264455974102,0.17238251864910126,1.035492181777954,8.464699745178223
1713723118819622003,0.027696875855326653,0.01810949482023716,-0.012783173471689224,0.3627215623855591,1.1121066808700562,9.6989107131958
1713723118829622003,-0.1065264418721199,0.027696875855326653,-0.006391586735844612,0.29807811975479126,0.5853822827339172,10.1753568649292
1713723118839622003,-0.21411815285682678,0.013848437927663326,-0.017044231295585632,0.12330138683319092,0.104147769510746,10.368090629577637
1713723118848622003,-0.1672465205192566,-0.03621898964047432,-0.009587380103766918,-0.40701428055763245,-0.7254431247711182,9.977835655212402
1713723118859622003,-0.09374327212572098,-0.08202536404132843,0.008522115647792816,-0.7266402244567871,-1.238999366760254,9.277531623840332
1713723118868622003,0.015978965908288956,-0.05432848632335663,0.019174760207533836,0.16639702022075653,-0.4944026470184326,9.78869342803955
1713723118877622003,0.09054747968912125,0.02556634694337845,-0.009587380103766918,0.9026139974594116,-0.11013327538967133,10.90678596496582
1713723118887622003,0.05006742849946022,0.11504855751991272,-0.015978965908288956,0.6368576288223267,-0.606930136680603,10.663774490356445
1713723118896622003,-0.027696875855326653,0.13635385036468506,-0.02130528911948204,0.13287819921970367,-0.7350199222564697,11.672929763793945
1713723118906622003,0.029827404767274857,0.03195793181657791,-0.020240023732185364,-1.0199298858642578,-0.9504980444908142,9.957484245300293
1713723118916622003,0.006391586735844612,-0.052197955548763275,0.01810949482023716,-1.0833762884140015,-0.5614402890205383,8.209717750549316
1713723118925622003,0.10333064943552017,-0.09480853378772736,-0.008522115647792816,0.010773907415568829,0.333991140127182,8.249221801757812
1713723118934622003,0.049002163112163544,-0.055393751710653305,-0.002130528911948204,0.5219359397888184,0.7984662652015686,8.494627952575684
1713723118944622003,-0.020240023732185364,-0.001065264455974102,-0.022370552644133568,0.6643909811973572,0.9205705523490906,9.920374870300293
1713723118954622003,-0.12783172726631165,0.05645901337265968,-0.023435818031430244,0.5231330394744873,0.424970805644989,10.38963794708252
1713723118963622003,-0.1906823366880417,0.05965480953454971,-0.027696875855326653,0.06224924325942993,-0.4213795065879822,12.374431610107422
1713723118973622003,-0.05965480953454971,-0.04687163606286049,-0.024501081556081772,-1.4101847410202026,-1.9584569931030273,10.812214851379395
1713723118982622003,-0.037284255027770996,-0.11504855751991272,0.03515372797846794,-1.2485761642456055,-1.9764134883880615,8.819042205810547
1713723118993622003,0.1533980816602707,-0.11398329585790634,-0.006391586735844612,0.667982280254364,-0.43933600187301636,9.014169692993164
1713723119001622003,0.12889699637889862,-0.009587380103766918,-0.004261057823896408,1.2473790645599365,0.4836287498474121,9.57321548461914
1713723119011622003,0.0884169489145279,0.0884169489145279,-0.037284255027770996,0.8798691034317017,0.6955155730247498,10.086771965026855
1713723119021622003,-0.02876213937997818,0.14487595856189728,-0.01810949482023716,0.3016694188117981,0.39624038338661194,9.50617790222168
1713723119031622003,-0.1257012039422989,0.11185276508331299,-0.02556634694337845,-0.26575639843940735,0.2609679698944092,10.57040023803711
1713723119040622003,-0.07243797928094864,-0.01065264455974102,-0.01065264455974102,-1.1468225717544556,-0.447715699672699,9.226056098937988
1713723119050622003,-0.0788295716047287,-0.10546118021011353,0.015978965908288956,-1.0618284940719604,-0.7362170219421387,8.336609840393066
1713723119059622003,0.023435818031430244,-0.13635385036468506,0.001065264455974102,0.040701426565647125,0.14604629576206207,9.047688484191895
1713723119069622003,0.013848437927663326,-0.07456851005554199,-0.012783173471689224,0.7098807692527771,0.7158662676811218,9.654618263244629
1713723119078622003,-0.013848437927663326,0.007456851191818714,-0.02556634694337845,0.8523358106613159,0.3292027413845062,10.304643630981445
1713723119088622003,-0.1161138266324997,0.07989483326673508,-0.019174760207533836,0.608127236366272,-0.3411737382411957,11.002553939819336
1713723119097622003,-0.09054747968912125,0.05752427875995636,-0.02876213937997818,-0.6859387755393982,-1.2054805755615234,12.036849021911621
1713723119108622003,0.003195793367922306,-0.05006742849946022,0.007456851191818714,-1.7561469078063965,-2.122459888458252,10.266336441040039
1713723119117622003,0.06604639440774918,-0.1065264418721199,0.037284255027770996,-0.4537012279033661,-1.0414776802062988,9.730035781860352
1713723119126622003,0.21518342196941376,-0.09800432622432709,-0.004261057823896408,0.9097966551780701,0.1628057062625885,8.945934295654297
1713723119136622003,0.14168016612529755,0.002130528911948204,-0.00532632227987051,1.01753568649292,0.243011474609375,8.686163902282715
1713723119145622003,0.04687163606286049,0.0649811327457428,-0.02556634694337845,0.6536170244216919,0.5135562419891357,10.001777648925781
1713723119155622003,-0.06817692518234253,0.09161274135112762,-0.007456851191818714,0.10654197633266449,0.5231330394744873,9.461884498596191
1713723119165622003,-0.17363810539245605,0.07989483326673508,-0.00532632227987051,-0.24899697303771973,0.49799394607543945,9.461884498596191
1713723119175622003,-0.14061491191387177,0.002130528911948204,-0.013848437927663326,-0.790086567401886,0.10654197633266449,9.009381294250488
1713723119184622003,-0.10759171098470688,-0.092678003013134,0.015978965908288956,-0.8463503122329712,-0.2885012924671173,8.51138687133789
1713723119193622003,-0.03195793181657791,-0.1257012039422989,0.012783173471689224,0.16400282084941864,0.040701426565647125,9.41878890991211
1713723119203622003,-0.022370552644133568,-0.05965480953454971,0.01065264455974102,0.933738648891449,-0.047884032130241394,11.198878288269043
1713723119213622003,-0.06072007119655609,0.03302319720387459,-0.004261057823896408,0.8846575021743774,-0.8367734551429749,11.771092414855957
1713723119222622003,-0.04367584362626076,0.07776430249214172,-0.007456851191818714,-0.15921440720558167,-1.7118542194366455,11.9398832321167
1713723119232622003,0.07456851005554199,0.002130528911948204,-0.008522115647792816,-1.1719616651535034,-2.293645143508911,10.335768699645996
1713723119241622003,0.12783172726631165,-0.047936901450157166,0.037284255027770996,-0.38307225704193115,-1.0510544776916504,9.908403396606445
1713723119251622003,0.2865561246871948,-0.07456851005554199,-0.011717909015715122,0.5171475410461426,0.33758243918418884,8.605957984924316
1713723119260622003,0.19174760580062866,0.001065264455974102,-0.003195793367922306,0.48482584953308105,0.7170634269714355,7.656656742095947
1713723119270622003,0.07669904083013535,0.037284255027770996,-0.026631610468029976,0.25977087020874023,1.193509578704834,9.551667213439941
1713723119280622003,-0.06924218684434891,0.04048004746437073,0.002130528911948204,0.08978256583213806,1.0211269855499268,9.272743225097656
1713723119289622003,-0.2269013226032257,0.02130528911948204,0.007456851191818714,0.017956512048840523,0.7589619159698486,9.701305389404297
1713723119299622003,-0.27164241671562195,0.009587380103766918,0.004261057823896408,-0.02992752008140087,0.33997663855552673,9.953893661499023
1713723119308622003,-0.15020228922367096,-0.05965480953454971,-0.00532632227987051,-0.395043283700943,-0.8080430626869202,8.364143371582031
1713723119318622003,-0.11398329585790634,-0.09906959533691406,0.027696875855326653,-0.33039984107017517,-0.9169792532920837,9.125499725341797
1713723119327622003,0.04687163606286049,-0.06604639440774918,0.01065264455974102,0.5063736438751221,-0.3423708379268646,10.69370174407959
1713723119337622003,0.001065264455974102,0.037284255027770996,0.004261057823896408,1.0295066833496094,-0.40940847992897034,11.763910293579102
1713723119346622003,-0.023435818031430244,0.11078750342130661,-0.014913702383637428,0.7398083209991455,-0.9026139974594116,12.67131233215332
1713723119357622003,0.06178533658385277,0.06178533658385277,-0.027696875855326653,-0.9409212470054626,-2.1356279850006104,10.493785858154297
1713723119366622003,0.07030745595693588,-0.03834952041506767,0.014913702383637428,-1.4125789403915405,-2.126051187515259,8.990227699279785
1713723119375622003,0.19600865244865417,-0.11078750342130661,0.007456851191818714,0.05626373738050461,-0.14365209639072418,8.847772598266602
1713723119385622003,0.18002969026565552,-0.08096009492874146,-0.006391586735844612,0.6440402269363403,1.337161660194397,9.182960510253906
1713723119395622003,0.14487595856189728,-0.015978965908288956,-0.030892668291926384,0.5327098965644836,1.3922282457351685,8.202534675598145
1713723119404622003,-0.011717909015715122,0.027696875855326653,-0.002130528911948204,0.45010989904403687,1.159990668296814,8.729259490966797
1713723119414622003,-0.11185276508331299,0.030892668291926384,-0.015978965908288956,0.24181437492370605,1.0127472877502441,9.703699111938477
1713723119424622003,-0.2173139452934265,0.047936901450157166,0.01810949482023716,0.19632454216480255,0.6236895322799683,9.182960510253906
1713723119433622003,-0.23755396902561188,0.04048004746437073,-0.011717909015715122,0.23822306096553802,0.02513911761343479,9.761159896850586
1713723119443622003,-0.12783172726631165,-0.020240023732185364,0.001065264455974102,-0.6224924325942993,-1.3108254671096802,9.26675796508789
1713723119452622003,-0.11185276508331299,-0.08096009492874146,0.02876213937997818,-0.7841010689735413,-1.8495208024978638,10.65898609161377
1713723119462622003,-0.02130528911948204,-0.06924218684434891,0.02130528911948204,0.4213795065879822,-1.2856862545013428,12.342109680175781
1713723119471622003,-0.00532632227987051,0.006391586735844612,-0.002130528911948204,0.7074865698814392,-1.1073182821273804,12.527660369873047
1713723119481622003,0.09693906456232071,0.026631610468029976,-0.023435818031430244,-0.0011971008498221636,-1.4484920501708984,10.952275276184082
1713723119490622003,0.13209278881549835,0.03515372797846794,0.01065264455974102,0.11851298063993454,-1.1049240827560425,8.99621295928955
1713723119500622003,0.25246766209602356,0.013848437927663326,-0.024501081556081772,0.4644751250743866,-0.009576806798577309,7.700949668884277
1713723119509622003,0.1949433982372284,0.04048004746437073,-0.004261057823896408,0.23343466222286224,0.9636661410331726,7.8314337730407715
1713723119519622003,0.10972223430871964,0.03941478580236435,-0.01810949482023716,0.05027823522686958,1.6065093278884888,9.003395080566406
1713723119529622003,-0.04580637067556381,0.04048004746437073,0.007456851191818714,-0.12210428714752197,1.4281412363052368,8.868123054504395
1713723119538622003,-0.2087918221950531,0.02130528911948204,-0.001065264455974102,-0.13527239859104156,1.1240776777267456,9.339780807495117
1713723119549622003,-0.2908172011375427,-0.002130528911948204,0.01065264455974102,-0.09576806426048279,0.5770025849342346,9.102754592895508
1713723119558622003,-0.22903186082839966,-0.07456851005554199,0.0,-0.38546645641326904,-0.4357447028160095,9.205705642700195
1713723119567622003,-0.1715075671672821,-0.11824434995651245,0.026631610468029976,-0.3447650372982025,-1.0977414846420288,10.02691650390625
1713723119577622003,-0.07989483326673508,-0.07776430249214172,0.02556634694337845,0.6536170244216919,-1.1121066808700562,11.763910293579102
1713723119586622003,-0.017044231295585632,0.029827404767274857,0.001065264455974102,1.0199298858642578,-1.6579846143722534,13.64335823059082
1713723119596622003,0.09054747968912125,0.07243797928094864,-0.026631610468029976,-0.17956513166427612,-2.8143839836120605,12.198457717895508
1713723119606622003,0.14487595856189728,0.052197955548763275,0.014913702383637428,-0.7685387134552002,-2.5055320262908936,9.50737476348877
1713723119615622003,0.2545982003211975,0.01065264455974102,0.004261057823896408,0.18914192914962769,-0.416591078042984,8.553285598754883
1713723119625622003,0.2652508318424225,0.009587380103766918,-0.006391586735844612,0.4704606235027313,1.3706804513931274,8.292317390441895
1713723119634622003,0.2034655064344406,0.027696875855326653,-0.008522115647792816,0.05506663769483566,1.824381709098816,7.343016624450684
1713723119644622003,0.02556634694337845,0.027696875855326653,0.0,-0.0694318488240242,1.7549498081207275,7.796717643737793
1713723119653622003,-0.1672465205192566,0.014913702383637428,0.004261057823896408,-0.11971008032560349,1.482010841369629,9.446322441101074
1713723119664622003,-0.32597091794013977,0.012783173471689224,0.013848437927663326,-0.05147533491253853,0.9576806426048279,9.953893661499023
1713723119672622003,-0.3430151343345642,-0.017044231295585632,0.006391586735844612,-0.3711012601852417,-0.0586579404771328,11.241973876953125
1713723119682622003,-0.16831177473068237,-0.12463594228029251,0.007456851191818714,-0.9576806426048279,-1.968033790588379,9.943119049072266
1713723119692622003,-0.07776430249214172,-0.1161138266324997,0.0649811327457428,0.5159504413604736,-2.5019407272338867,9.895235061645508
1713723119701622003,0.08415588736534119,-0.04367584362626076,-0.012783173471689224,1.6077064275741577,-1.6591817140579224,12.111068725585938
1713723119711622003,0.07456851005554199,0.11717908829450607,0.007456851191818714,1.0127472877502441,-1.2306196689605713,11.711236953735352
1713723119721622003,0.05006742849946022,0.18855179846286774,-0.037284255027770996,0.45848962664604187,-0.8762778043746948,11.696871757507324
1713723119730622003,0.1299622654914856,0.12357067316770554,-0.00532632227987051,-0.93254154920578,-0.9816226959228516,8.942342758178711
1713723119740622003,0.10546118021011353,0.02130528911948204,0.014913702383637428,-1.0654197931289673,-0.09696516394615173,7.885303020477295
1713723119749622003,0.1949433982372284,-0.049002163112163544,0.01810949482023716,-0.2693476974964142,0.9528922438621521,7.861361026763916
1713723119759622003,0.08309062570333481,-0.05326322093605995,0.013848437927663326,-0.03950432687997818,1.115697979927063,7.948749542236328
1713723119768622003,-0.03302319720387459,-0.029827404767274857,0.012783173471689224,0.31124621629714966,1.260547161102295,9.72404956817627
1713723119778622003,-0.17257283627986908,0.008522115647792816,0.013848437927663326,0.4106055796146393,0.8678981065750122,9.8784761428833
1713723119788622003,-0.260989785194397,0.044741105288267136,0.008522115647792816,0.22026655077934265,0.14724339544773102,9.86770248413086
1713723119797622003,-0.1533980816602707,0.0,-0.00532632227987051,-0.4058171808719635,-0.93254154920578,9.459490776062012
1713723119807622003,-0.09161274135112762,-0.06817692518234253,0.02876213937997818,-0.7697358131408691,-1.456871747970581,9.182960510253906
1713723119816622003,0.034088462591171265,-0.07776430249214172,0.03621898964047432,0.30047231912612915,-0.6787561774253845,10.60391902923584
1713723119826622003,0.058589544147253036,-0.001065264455974102,0.01810949482023716,1.1049240827560425,-0.31603461503982544,12.012907028198242
1713723119836622003,0.003195793367922306,0.10120011866092682,0.007456851191818714,0.772130012512207,-0.8535329103469849,11.133037567138672
1713723119845622003,-0.017044231295585632,0.13635385036468506,0.004261057823896408,-0.07062894850969315,-1.1444283723831177,11.111490249633789
1713723119855622003,0.07137271761894226,0.03195793181657791,0.001065264455974102,-0.9768342971801758,-1.3443442583084106,9.607931137084961
1713723119864622003,0.092678003013134,-0.03834952041506767,0.047936901450157166,-0.4620809257030487,-0.47644612193107605,8.899247169494629
1713723119874622003,0.19600865244865417,-0.07350324839353561,0.006391586735844612,0.33758243918418884,0.45489832758903503,8.482656478881836
1713723119883622003,0.09906959533691406,-0.008522115647792816,0.02130528911948204,0.42616790533065796,0.5482721924781799,8.233659744262695
1713723119893622003,-0.011717909015715122,0.03302319720387459,-0.004261057823896408,0.32441431283950806,0.7757213115692139,9.697713851928711
1713723119903622003,-0.12463594228029251,0.07243797928094864,0.020240023732185364,0.16879121959209442,0.7386112213134766,9.362525939941406
1713723119912622003,-0.22157500684261322,0.08628641813993454,0.013848437927663326,0.08858545869588852,0.591367781162262,9.50498104095459
1713723119922622003,-0.16831177473068237,0.041545312851667404,-0.003195793367922306,-0.4944026470184326,-0.05626373738050461,9.403226852416992
1713723119931622003,-0.10972223430871964,-0.05645901337265968,0.027696875855326653,-0.8535329103469849,-0.8858546018600464,9.211690902709961
1713723119941622003,-0.06178533658385277,-0.09480853378772736,0.03941478580236435,0.07661445438861847,-0.8571242094039917,11.250353813171387
1713723119951622003,-0.022370552644133568,-0.029827404767274857,0.030892668291926384,0.8559271097183228,-1.1073182821273804,12.460622787475586
1713723119960622003,-0.024501081556081772,0.055393751710653305,0.002130528911948204,0.4297592043876648,-1.8327614068984985,12.181697845458984
1713723119970622003,0.09587380290031433,0.03515372797846794,-0.002130528911948204,-0.6236895322799683,-2.3714568614959717,10.453083992004395
1713723119980622003,0.13635385036468506,0.00532632227987051,0.03302319720387459,-0.181959331035614,-1.4113818407058716,9.430760383605957
1713723119989622003,0.3004045784473419,-0.017044231295585632,0.004261057823896408,0.6177040338516235,0.22864626348018646,8.105569839477539
1713723119998622003,0.2183792144060135,0.04580637067556381,0.003195793367922306,0.3423708379268646,1.015141487121582,7.523778915405273
1713723120008622003,0.09906959533691406,0.07563377171754837,-0.01065264455974102,0.13766659796237946,1.5047557353973389,9.220070838928223
1713723120018622003,-0.08735168725252151,0.07456851005554199,0.012783173471689224,-0.10175357013940811,1.2342109680175781,9.570820808410645
1713723120027622003,-0.2556634545326233,0.04261057823896408,0.014913702383637428,-0.19153612852096558,0.8415618538856506,9.915586471557617
1713723120037622003,-0.2886866629123688,0.0,0.019174760207533836,-0.24779987335205078,0.2669534981250763,10.26274585723877
1713723120046622003,-0.16085493564605713,-0.09693906456232071,0.012783173471689224,-0.8762778043746948,-1.015141487121582,8.696937561035156
1713723120056622003,-0.11185276508331299,-0.10546118021011353,0.055393751710653305,-0.3016694188117981,-1.1839326620101929,9.078812599182129
1713723120066622003,0.02130528911948204,-0.03195793181657791,0.011717909015715122,1.0977414846420288,-0.9361328482627869,11.239580154418945
1713723120075622003,-0.034088462591171265,0.1065264418721199,0.01810949482023716,1.2294225692749023,-1.4879963397979736,12.234370231628418
1713723120085622003,0.05752427875995636,0.11824434995651245,-0.023435818031430244,-0.06224924325942993,-2.011129379272461,12.467804908752441
1713723120094622003,0.1161138266324997,0.037284255027770996,0.013848437927663326,-1.3551181554794312,-1.96683669090271,9.39245319366455
1713723120104622003,0.20985709130764008,-0.03515372797846794,0.03195793181657791,-0.29448679089546204,-0.15442600846290588,8.754398345947266
1713723120114622003,0.28016453981399536,-0.052197955548763275,-0.00532632227987051,0.424970805644989,1.3503297567367554,8.779537200927734
1713723120123622003,0.19707392156124115,0.009587380103766918,0.0,0.14844051003456116,1.217451572418213,7.7428483963012695
1713723120132622003,0.012783173471689224,0.03302319720387459,-0.002130528911948204,0.16400282084941864,1.0211269855499268,9.567230224609375
1713723120142491039,-0.14700649678707123,0.03195793181657791,0.009587380103766918,0.0035913025494664907,0.7553706169128418,10.073603630065918
1713723120152491039,-0.2908172011375427,0.03302319720387459,0.022370552644133568,-0.06823474913835526,0.38786065578460693,9.410409927368164
1713723120162491039,-0.27483823895454407,0.02556634694337845,0.001065264455974102,-0.17717091739177704,-0.14484919607639313,10.089165687561035
1713723120171491039,-0.1203748807311058,-0.05326322093605995,0.003195793367922306,-0.8702923059463501,-1.425747036933899,8.69334602355957
1713723120181491039,-0.08096009492874146,-0.08096009492874146,0.04048004746437073,-0.39384618401527405,-1.3658920526504517,9.678560256958008
1713723120190491039,0.06817692518234253,-0.03941478580236435,0.008522115647792816,0.8918401002883911,-0.7422025203704834,11.390414237976074
1713723120200491039,0.0,0.06711165606975555,0.01065264455974102,1.035492181777954,-0.9169792532920837,11.413159370422363
1713723120209491039,0.0,0.11824434995651245,-0.019174760207533836,0.16759411990642548,-0.729034423828125,12.591106414794922
1713723120219491039,0.09054747968912125,0.0511326938867569,-0.009587380103766918,-0.9971849918365479,-1.2258312702178955,9.567230224609375
1713723120229491039,0.10013485699892044,-0.02130528911948204,0.027696875855326653,-0.5327098965644836,-0.7182605266571045,7.892485618591309
1713723120238491039,0.2130528837442398,-0.06391586363315582,-0.004261057823896408,0.3280056416988373,0.46327802538871765,8.010998725891113
1713723120248491039,0.11398329585790634,-0.019174760207533836,0.01065264455974102,0.3711012601852417,0.7805097699165344,8.561665534973145
1713723120257491039,-0.008522115647792816,0.015978965908288956,-0.011717909015715122,0.3543418347835541,0.8702923059463501,10.292673110961914
1713723120267491039,-0.15233281254768372,0.044741105288267136,0.006391586735844612,0.33997663855552673,0.6021417379379272,10.02452278137207
1713723120277491039,-0.24394555389881134,0.05326322093605995,0.0,0.2059013396501541,0.2298433631658554,10.011354446411133
1713723120286491039,-0.12783172726631165,-0.002130528911948204,-0.007456851191818714,-0.4572925269603729,-0.7158662676811218,8.72806167602539
1713723120295491039,-0.09054747968912125,-0.05006742849946022,0.03195793181657791,-0.6811503767967224,-1.0247182846069336,8.470685005187988
1713723120305491039,0.047936901450157166,-0.05326322093605995,0.020240023732185364,-0.017956512048840523,-0.27413609623908997,9.828197479248047
1713723120315491039,0.02556634694337845,0.03195793181657791,0.019174760207533836,0.5363011956214905,0.09457096457481384,11.312602996826172
1713723120324491039,-0.022370552644133568,0.09906959533691406,-0.002130528911948204,0.477643221616745,-0.38786065578460693,11.717223167419434
1713723120334491039,-0.04580637067556381,0.09480853378772736,0.002130528911948204,-0.386663556098938,-1.4437036514282227,11.617863655090332
1713723120344491039,0.026631610468029976,-0.03302319720387459,0.002130528911948204,-1.1779471635818481,-2.0673930644989014,10.11550235748291
1713723120353491039,0.06604639440774918,-0.09374327212572098,0.047936901450157166,-0.43933600187301636,-0.8846575021743774,9.188945770263672
1713723120363491039,0.21198762953281403,-0.08309062570333481,-0.001065264455974102,0.5147533416748047,0.355538934469223,8.493430137634277
1713723120372491039,0.15872439742088318,0.023435818031430244,0.002130528911948204,0.7050923705101013,0.386663556098938,7.929595947265625
1713723120382491039,0.04580637067556381,0.08309062570333481,-0.006391586735844612,0.5398924946784973,0.5793967843055725,10.20648193359375
1713723120391491039,-0.08202536404132843,0.1022653877735138,0.003195793367922306,0.015562310814857483,0.5614402890205383,10.383652687072754
1713723120402491039,-0.20772656798362732,0.0884169489145279,0.007456851191818714,-0.25977087020874023,0.2753331959247589,9.580397605895996
1713723120411491039,-0.16298545897006989,-0.013848437927663326,-0.01065264455974102,-0.8403647541999817,-0.4357447028160095,9.069235801696777
1713723120420491039,-0.11930961906909943,-0.10972223430871964,0.03621898964047432,-1.138442873954773,-0.8571242094039917,8.604761123657227
1713723120430491039,-0.00532632227987051,-0.11824434995651245,0.029827404767274857,0.023942016065120697,-0.06224924325942993,9.373299598693848
1713723120439491039,0.03515372797846794,-0.022370552644133568,0.019174760207533836,0.9864110946655273,0.20350714027881622,10.814608573913574
1713723120449491039,-0.01065264455974102,0.08628641813993454,0.002130528911948204,0.7613561153411865,-0.6212953329086304,11.616666793823242
1713723120458491039,-0.05645901337265968,0.13102751970291138,0.003195793367922306,-0.010773907415568829,-1.37906014919281,12.78384017944336
1713723120469491039,0.044741105288267136,0.006391586735844612,-0.008522115647792816,-0.9169792532920837,-2.341529130935669,10.639832496643066
1713723120478491039,0.055393751710653305,-0.06391586363315582,0.06285060197114944,-0.5530605912208557,-1.725022315979004,9.033323287963867
1713723120487491039,0.24288028478622437,-0.0788295716047287,0.006391586735844612,0.14724339544773102,-0.10534487664699554,8.226476669311523
1713723120497491039,0.17257283627986908,0.02556634694337845,0.023435818031430244,0.29448679089546204,0.6967126727104187,7.952340602874756
1713723120506491039,0.09374327212572098,0.07669904083013535,-0.012783173471689224,0.31124621629714966,1.237802267074585,9.516951560974121
1713723120516491039,-0.05326322093605995,0.09374327212572098,0.019174760207533836,0.02753331884741783,1.036689281463623,9.476249694824219
1713723120526491039,-0.20026971399784088,0.05645901337265968,0.007456851191818714,-0.15442600846290588,0.7410054206848145,9.874884605407715
1713723120536491039,-0.23116238415241241,-0.007456851191818714,0.01810949482023716,-0.6105214357376099,0.22744916379451752,10.280701637268066
1713723120545491039,-0.13209278881549835,-0.10546118021011353,0.02876213937997818,-1.182735562324524,-0.9576806426048279,8.953117370605469
1713723120554491039,-0.07350324839353561,-0.1065264418721199,0.05965480953454971,-0.29209259152412415,-1.0606313943862915,9.030928611755371
1713723120564491039,0.06711165606975555,-0.030892668291926384,0.027696875855326653,0.910993754863739,-0.6200982332229614,10.375272750854492
1713723120573491039,0.015978965908288956,0.08948221057653427,0.020240023732185364,1.0642226934432983,-0.910993754863739,11.512518882751465
1713723120583491039,-0.013848437927663326,0.11824434995651245,0.0,0.44173020124435425,-1.304839849472046,13.401543617248535
1713723120593491039,0.05432848632335663,0.012783173471689224,-0.002130528911948204,-0.8224082589149475,-2.0805611610412598,10.911574363708496
1713723120602491039,0.055393751710653305,-0.055393751710653305,0.0511326938867569,-0.3064578175544739,-1.6555904150009155,9.02135181427002
1713723120612491039,0.21411815285682678,-0.05645901337265968,0.00532632227987051,0.5506663918495178,-0.2298433631658554,8.160635948181152
1713723120621491039,0.18002969026565552,0.05006742849946022,0.014913702383637428,0.3842693567276001,0.8152256608009338,7.927201747894287
1713723120631491039,0.1342233121395111,0.10759171098470688,-0.011717909015715122,0.20709843933582306,1.3922282457351685,8.89685344696045
1713723120640491039,0.011717909015715122,0.11717908829450607,0.006391586735844612,-0.3315969407558441,1.1982979774475098,8.757989883422852
1713723120651491039,-0.14061491191387177,0.058589544147253036,0.001065264455974102,-0.6428431272506714,0.9157821536064148,9.746794700622559
1713723120660491039,-0.22477079927921295,-0.023435818031430244,0.022370552644133568,-0.6751648783683777,0.48961424827575684,10.216058731079102
1713723120669491039,-0.16405072808265686,-0.12357067316770554,0.02876213937997818,-1.1468225717544556,-0.690727174282074,9.387664794921875
1713723120679491039,-0.13315805792808533,-0.14700649678707123,0.05432848632335663,-0.669179379940033,-1.1695674657821655,9.294290542602539
1713723120688491039,-0.02130528911948204,-0.08202536404132843,0.030892668291926384,0.712274968624115,-0.7984662652015686,10.587160110473633
1713723120698491039,-0.013848437927663326,0.04048004746437073,0.014913702383637428,1.316810965538025,-1.0474631786346436,12.257115364074707
1713723120708491039,0.06711165606975555,0.07456851005554199,-0.014913702383637428,0.6093243360519409,-2.0266916751861572,12.202048301696777
1713723120717491039,0.10546118021011353,0.037284255027770996,0.014913702383637428,-0.545877993106842,-2.2254104614257812,10.177751541137695
1713723120728491039,0.17470337450504303,0.008522115647792816,0.029827404767274857,-0.272938996553421,-0.6464344263076782,9.441534042358398
1713723120737491039,0.23968449234962463,0.029827404767274857,0.006391586735844612,0.16519992053508759,0.7793126106262207,8.652645111083984
1713723120746491039,0.20026971399784088,0.0649811327457428,0.007456851191818714,0.06224924325942993,1.1324573755264282,7.437587261199951
1713723120756491039,0.07776430249214172,0.05432848632335663,0.008522115647792816,-0.18076223134994507,1.2653355598449707,8.214506149291992
1713723120765491039,-0.07350324839353561,0.015978965908288956,0.008522115647792816,-0.5243301391601562,1.2078747749328613,9.659406661987305
1713723120775491039,-0.21092236042022705,-0.029827404767274857,0.014913702383637428,-0.5315127968788147,0.8032546639442444,9.898826599121094
1713723120784491039,-0.2737729549407959,-0.0649811327457428,0.022370552644133568,-0.17836801707744598,0.181959331035614,9.825803756713867
1713723120794491039,-0.17044231295585632,-0.1065264418721199,0.02130528911948204,-0.5051765441894531,-1.0342950820922852,9.319430351257324
1713723120804491039,-0.10546118021011353,-0.09800432622432709,0.044741105288267136,-0.6224924325942993,-1.6555904150009155,10.089165687561035
1713723120813491039,-0.003195793367922306,-0.03834952041506767,0.029827404767274857,0.5111620426177979,-1.2964601516723633,12.124237060546875
1713723120823491039,0.04261057823896408,0.03941478580236435,0.007456851191818714,1.0534486770629883,-1.4449007511138916,12.79700756072998
1713723120832491039,0.10865697264671326,0.052197955548763275,-0.007456851191818714,0.25737667083740234,-1.8722656965255737,11.268310546875
1713723120843491039,0.13848437368869781,0.049002163112163544,0.02876213937997818,0.014365210197865963,-1.2270283699035645,9.210494041442871
1713723120851491039,0.2407497614622116,0.03515372797846794,0.004261057823896408,0.015562310814857483,0.0802057534456253,7.717709064483643
1713723120861491039,0.19707392156124115,0.058589544147253036,0.01065264455974102,-0.43335050344467163,1.0247182846069336,7.897274017333984
1713723120871491039,0.11078750342130661,0.03621898964047432,0.008522115647792816,-0.5219359397888184,1.4077905416488647,8.974664688110352
1713723120880491039,-0.04367584362626076,-0.009587380103766918,0.02876213937997818,-0.4513069987297058,1.0666168928146362,9.334992408752441
1713723120890491039,-0.20240023732185364,-0.05645901337265968,0.029827404767274857,-0.1759738177061081,0.6332663297653198,9.929951667785645
1713723120900491039,-0.2790992856025696,-0.06711165606975555,0.03834952041506767,0.1173158809542656,0.15562310814857483,10.169371604919434
1713723120909491039,-0.15872439742088318,-0.08522115647792816,0.02130528911948204,-0.2992752194404602,-0.8966284990310669,9.247604370117188
1713723120919491039,-0.07669904083013535,-0.06604639440774918,0.044741105288267136,-0.6260837316513062,-1.4413094520568848,9.135076522827148
1713723120928491039,0.041545312851667404,-0.015978965908288956,0.03195793181657791,0.208295539021492,-0.9181763529777527,11.365275382995605
1713723120938491039,0.05645901337265968,0.06072007119655609,0.013848437927663326,0.8846575021743774,-0.8367734551429749,12.352883338928223
1713723120947491039,0.058589544147253036,0.06817692518234253,0.0,0.27413609623908997,-1.425747036933899,11.730391502380371
1713723120957491039,0.08415588736534119,0.00532632227987051,0.015978965908288956,-0.6308721303939819,-1.436521053314209,9.551667213439941
1713723120967491039,0.12676647305488586,-0.04261057823896408,0.03941478580236435,-0.35913026332855225,-0.20231004059314728,8.383296966552734
1713723120976491039,0.19813919067382812,-0.03834952041506767,0.022370552644133568,0.2322375625371933,0.8678981065750122,8.378508567810059
1713723120986491039,0.14274543523788452,0.01065264455974102,0.024501081556081772,0.2932896912097931,0.9157821536064148,8.090007781982422
1713723120995491039,0.006391586735844612,0.05006742849946022,0.027696875855326653,0.1759738177061081,0.8391676545143127,9.660603523254395
1713723121005491039,-0.1395496428012848,0.05645901337265968,0.022370552644133568,-0.07661445438861847,0.6392518281936646,10.63743782043457
1713723121014491039,-0.23116238415241241,0.03302319720387459,0.034088462591171265,-0.20470423996448517,0.10175357013940811,10.316615104675293
1713723121025491039,-0.13741911947727203,-0.07030745595693588,0.023435818031430244,-0.9289502501487732,-1.0534486770629883,8.560467720031738
1713723121033491039,-0.10546118021011353,-0.11824434995651245,0.06711165606975555,-0.8607155084609985,-1.1994950771331787,8.757989883422852
1713723121043491039,0.04367584362626076,-0.09374327212572098,0.03302319720387459,0.3423708379268646,-0.34596213698387146,10.273519515991211
1713723121053491039,0.0,0.019174760207533836,0.03195793181657791,1.0223240852355957,-0.2968810200691223,12.163741111755371
1713723121062491039,-0.02130528911948204,0.08309062570333481,0.003195793367922306,1.1719616651535034,-1.2210428714752197,13.329717636108398
1713723121072491039,0.06391586363315582,0.03834952041506767,0.0,-0.5662286877632141,-2.5079262256622314,10.405200004577637
1713723121081491039,0.08522115647792816,-0.02556634694337845,0.052197955548763275,-0.9385270476341248,-1.84233820438385,8.514978408813477
1713723121092491039,0.27696874737739563,-0.04367584362626076,0.02556634694337845,0.29807811975479126,0.26815059781074524,7.671021938323975
1713723121101491039,0.24181503057479858,0.02556634694337845,0.024501081556081772,0.35673603415489197,1.6759411096572876,8.285135269165039
1713723121110491039,0.15978966653347015,0.06924218684434891,0.003195793367922306,0.18914192914962769,1.8052279949188232,9.121908187866211
1713723121120491039,-0.05965480953454971,0.07243797928094864,0.03302319720387459,-0.09576806426048279,1.1863269805908203,10.0580415725708
1713723121129491039,-0.23435817658901215,0.019174760207533836,0.015978965908288956,-0.2621650695800781,0.6045359373092651,10.378864288330078
1713723121139491039,-0.30466562509536743,-0.02876213937997818,0.041545312851667404,-0.27413609623908997,-0.09696516394615173,9.953893661499023
1713723121149491039,-0.15552860498428345,-0.12783172726631165,0.014913702383637428,-0.8846575021743774,-1.212663173675537,8.611943244934082
1713723121158491039,-0.08415588736534119,-0.1161138266324997,0.06711165606975555,-0.2238578498363495,-1.2904746532440186,8.610746383666992
1713723121168491039,0.07989483326673508,-0.03941478580236435,0.01065264455974102,1.1180921792984009,-0.7433996200561523,10.669759750366211
1713723121177491039,0.02556634694337845,0.09587380290031433,0.015978965908288956,1.2916717529296875,-0.9217676520347595,12.343306541442871
1713723121187491039,-0.001065264455974102,0.13635385036468506,-0.012783173471689224,0.5063736438751221,-1.3994108438491821,14.262259483337402
1713723121196491039,0.09587380290031433,0.03941478580236435,-0.00532632227987051,-1.180341362953186,-2.0865466594696045,10.451887130737305
1713723121207491039,0.10865697264671326,-0.02876213937997818,0.0511326938867569,-0.7445967197418213,-1.0330979824066162,7.6746134757995605
1713723121216491039,0.30466562509536743,-0.07563377171754837,-0.004261057823896408,0.16639702022075653,0.5662286877632141,6.737283706665039
1713723121225491039,0.20985709130764008,-0.008522115647792816,0.013848437927663326,0.10893617570400238,1.314416766166687,7.746439456939697
1713723121235491039,0.10013485699892044,0.007456851191818714,-0.02556634694337845,0.22505494952201843,1.624465823173523,10.018536567687988
1713723121245491039,-0.1065264418721199,0.013848437927663326,0.02130528911948204,0.2238578498363495,1.0319008827209473,10.089165687561035
1713723121254491039,-0.2695119082927704,-0.006391586735844612,-0.004261057823896408,0.2717418968677521,0.6464344263076782,10.178948402404785
1713723121264491039,-0.2908172011375427,0.007456851191818714,0.020240023732185364,0.447715699672699,0.2801215946674347,9.368511199951172
1713723121274491039,-0.11078750342130661,-0.049002163112163544,-0.019174760207533836,-0.7781155109405518,-1.0630255937576294,8.525752067565918
1713723121283491039,-0.04580637067556381,-0.047936901450157166,0.03834952041506767,-0.7936778664588928,-1.4089876413345337,9.446322441101074
1713723121292491039,0.09693906456232071,-0.02130528911948204,-0.008522115647792816,0.7062894701957703,-0.93254154920578,11.367669105529785
1713723121302491039,0.012783173471689224,0.06072007119655609,-0.001065264455974102,0.993593692779541,-1.2952630519866943,12.756306648254395
1713723121311491039,0.01065264455974102,0.049002163112163544,-0.03302319720387459,-0.1256955862045288,-1.6172832250595093,13.128604888916016
1713723121321491039,0.09906959533691406,-0.027696875855326653,-0.006391586735844612,-1.37906014919281,-1.5622166395187378,9.129091262817383
1713723121331491039,0.17363810539245605,-0.06391586363315582,0.027696875855326653,-0.2849099934101105,-0.12090718746185303,7.724891662597656
1713723121341491039,0.32703617215156555,-0.055393751710653305,-0.02130528911948204,0.5997475385665894,1.0845733880996704,7.924807548522949
1713723121350491039,0.23329290747642517,0.007456851191818714,-0.002130528911948204,0.2561795711517334,0.9971849918365479,7.981071472167969
1713723121359491039,0.052197955548763275,0.029827404767274857,-0.007456851191818714,0.0,0.9600748419761658,10.57040023803711
1713723121369491039,-0.148071750998497,0.026631610468029976,0.006391586735844612,0.02274491637945175,0.6572083830833435,10.597933769226074
1713723121378491039,-0.3025350868701935,0.014913702383637428,0.011717909015715122,0.09217676520347595,0.4644751250743866,9.130288124084473
1713723121389491039,-0.26205503940582275,-0.002130528911948204,-0.00532632227987051,-0.25258827209472656,0.3603273630142212,8.836997985839844
1713723121398491039,-0.11824434995651245,-0.07030745595693588,-0.004261057823896408,-0.6368576288223267,-0.5710170865058899,8.145073890686035
1713723121407491039,-0.041545312851667404,-0.07243797928094864,0.020240023732185364,0.11013327538967133,-0.9026139974594116,10.034099578857422
1713723121417491039,0.049002163112163544,-0.023435818031430244,-0.017044231295585632,1.0199298858642578,-0.9588777422904968,12.688071250915527
1713723121427491039,-0.026631610468029976,0.05432848632335663,-0.011717909015715122,0.9900023937225342,-1.9045873880386353,13.036428451538086
1713723121436491039,0.058589544147253036,0.027696875855326653,-0.03834952041506767,-0.4489127993583679,-2.455253839492798,11.531672477722168
1713723121446491039,0.11078750342130661,-0.013848437927663326,0.009587380103766918,-1.2102689743041992,-1.6328455209732056,8.44315242767334
1713723121456491039,0.28122982382774353,-0.04261057823896408,0.00532632227987051,-0.05746084079146385,0.4800374209880829,7.371747016906738
1713723121465491039,0.2918824553489685,-0.01065264455974102,-0.017044231295585632,0.4058171808719635,1.9129670858383179,8.42280101776123
1713723121475491039,0.19600865244865417,0.02876213937997818,-0.019174760207533836,0.14365209639072418,1.7621324062347412,9.185354232788086
1713723121484491039,-0.034088462591171265,0.02876213937997818,-0.00532632227987051,0.009576806798577309,1.1192892789840698,9.996989250183105
1713723121494491039,-0.222640261054039,-0.004261057823896408,-0.004261057823896408,0.008379706181585789,0.7422025203704834,9.96945571899414
1713723121503491039,-0.3206445872783661,-0.008522115647792816,0.017044231295585632,0.090979665517807,0.4405331015586853,8.465896606445312
1713723121513491039,-0.21518342196941376,-0.03302319720387459,-0.019174760207533836,-0.2585737705230713,-0.3124433159828186,8.015787124633789
1713723121523491039,-0.11291802674531937,-0.06391586363315582,0.01810949482023716,-0.4692635238170624,-1.035492181777954,8.71489429473877
1713723121532491039,-0.020240023732185364,-0.05432848632335663,0.00532632227987051,0.16400282084941864,-0.7457938194274902,11.75553035736084
1713723121542491039,-0.00532632227987051,0.015978965908288956,0.0,0.7972691655158997,-1.0821791887283325,14.101847648620605
1713723121551491039,0.024501081556081772,0.019174760207533836,-0.02130528911948204,0.325611412525177,-2.5246856212615967,13.142970085144043
1713723121561491039,0.08735168725252151,-0.023435818031430244,0.004261057823896408,-0.7242460250854492,-2.785653591156006,9.910798072814941
1713723121571491039,0.18429075181484222,-0.020240023732185364,0.022370552644133568,-0.33039984107017517,-0.689530074596405,8.537723541259766
1713723121580491039,0.35473304986953735,0.022370552644133568,-0.013848437927663326,0.447715699672699,1.1971008777618408,7.5884222984313965
1713723121590491039,0.29401299357414246,0.09054747968912125,-0.008522115647792816,0.1975216418504715,1.459265947341919,7.2352776527404785
1713723121599491039,0.10759171098470688,0.092678003013134,-0.01065264455974102,-0.264559268951416,1.578976035118103,10.031704902648926
1713723121609491039,-0.11185276508331299,0.04048004746437073,0.006391586735844612,-0.49320554733276367,1.1563993692398071,10.778696060180664
1713723121618491039,-0.31318774819374084,-0.03195793181657791,0.017044231295585632,-0.48602294921875,0.5566518902778625,9.68694019317627
1713723121628491039,-0.2972087860107422,-0.09800432622432709,0.017044231295585632,-0.8427590131759644,0.02753331884741783,8.799888610839844
1713723121637491039,-0.16298545897006989,-0.16511598229408264,0.026631610468029976,-0.8295908570289612,-0.7410054206848145,7.843404769897461
1713723121648491039,-0.03621898964047432,-0.12357067316770554,0.04580637067556381,0.7015010714530945,-0.7003039717674255,9.488221168518066
1713723121657491039,0.06924218684434891,-0.015978965908288956,-0.003195793367922306,1.4975731372833252,-0.6272808313369751,12.139799118041992
1713723121666491039,0.01065264455974102,0.11291802674531937,0.001065264455974102,1.337161660194397,-1.4437036514282227,12.856863021850586
1713723121676491039,0.03515372797846794,0.09800432622432709,-0.02556634694337845,0.11013327538967133,-2.3068132400512695,12.76109504699707
1713723121685491039,0.11078750342130661,0.0,0.006391586735844612,-1.4532804489135742,-2.0649988651275635,9.205705642700195
1713723121695491039,0.20559602975845337,-0.04367584362626076,0.03621898964047432,-0.4991910457611084,0.09576806426048279,7.841010570526123
1713723121704491039,0.33662354946136475,-0.044741105288267136,-0.013848437927663326,0.40462008118629456,1.5957354307174683,8.087613105773926
1713723121714491039,0.23968449234962463,0.009587380103766918,0.006391586735844612,0.05985504016280174,1.4329296350479126,7.8278422355651855
1713723121724491039,0.03834952041506767,0.017044231295585632,-0.00532632227987051,-0.09816227108240128,1.2210428714752197,10.21007251739502
1713723121733491039,-0.17044231295585632,0.0,0.015978965908288956,-0.016759412363171577,0.8283937573432922,10.575188636779785
1713723121743491039,-0.32703617215156555,-0.013848437927663326,0.02556634694337845,0.04668693244457245,0.4704606235027313,9.252392768859863
1713723121752491039,-0.3110572099685669,0.008522115647792816,0.020240023732185364,0.15682020783424377,0.15083470940589905,9.063250541687012
1713723121762491039,-0.11717908829450607,-0.03515372797846794,0.007456851191818714,-0.7074865698814392,-0.9157821536064148,8.281543731689453
1713723121772491039,-0.0649811327457428,-0.044741105288267136,0.04580637067556381,-0.5781996846199036,-1.0546457767486572,9.829395294189453
1713723121781491039,0.07350324839353561,-0.019174760207533836,0.007456851191818714,0.8307879567146301,-0.8307879567146301,12.160150527954102
1713723121791491039,-0.024501081556081772,0.041545312851667404,0.01065264455974102,1.2844891548156738,-1.5502455234527588,12.926294326782227
1713723121800491039,0.030892668291926384,0.013848437927663326,-0.019174760207533836,0.2669534981250763,-1.9057844877243042,12.498929977416992
1713723121810491039,0.09374327212572098,-0.023435818031430244,0.012783173471689224,-0.8451532125473022,-1.5682021379470825,8.440757751464844
1713723121819491039,0.23116238415241241,-0.03621898964047432,0.015978965908288956,0.013168109580874443,0.27892449498176575,7.163451194763184
1713723121830491039,0.30892667174339294,0.01065264455974102,-0.012783173471689224,0.46806642413139343,1.6579846143722534,8.258798599243164
1713723121839491039,0.21411815285682678,0.06391586363315582,-0.00532632227987051,0.014365210197865963,1.4125789403915405,8.923189163208008
1713723121848491039,-0.004261057823896408,0.06817692518234253,0.00532632227987051,-0.21428105235099792,1.094150185585022,10.608707427978516
1713723121858491039,-0.20985709130764008,0.02876213937997818,0.014913702383637428,-0.24181437492370605,0.7362170219421387,10.32978343963623
1713723121867491039,-0.33555829524993896,-0.00532632227987051,0.03621898964047432,-0.21667525172233582,0.23702596127986908,8.767566680908203
1713723121877491039,-0.20985709130764008,-0.07243797928094864,0.01065264455974102,-0.5339069962501526,-0.5171475410461426,7.881711959838867
1713723121886491039,-0.13315805792808533,-0.10013485699892044,0.05006742849946022,-0.4321534037590027,-0.9385270476341248,8.483853340148926
1713723121896491039,0.012783173471689224,-0.07137271761894226,0.02556634694337845,0.2908954918384552,-0.47405192255973816,10.953472137451172
1713723121906491039,0.009587380103766918,0.03621898964047432,0.022370552644133568,0.8367734551429749,-0.4596867263317108,13.317747116088867
1713723121916491039,-0.009587380103766918,0.08309062570333481,-0.00532632227987051,0.7781155109405518,-1.6783353090286255,14.287398338317871
1713723121925491039,0.08202536404132843,0.011717909015715122,-0.002130528911948204,-0.6811503767967224,-2.874239206314087,10.757147789001465
1713723121934491039,0.11398329585790634,-0.03941478580236435,0.03941478580236435,-0.6919242739677429,-1.7166426181793213,8.008605003356934
1713723121945491039,0.324905663728714,-0.04580637067556381,-0.001065264455974102,0.5183446407318115,0.39863458275794983,7.134720802307129
1713723121954491039,0.27696874737739563,0.01810949482023716,-0.003195793367922306,0.5865793824195862,1.5167267322540283,7.462726593017578
1713723121963491039,0.1533980816602707,0.03621898964047432,-0.012783173471689224,0.44651859998703003,1.9800047874450684,9.757569313049316
1713723121973491039,-0.06604639440774918,0.030892668291926384,0.01065264455974102,0.27892449498176575,1.502361536026001,10.386046409606934
1713723121982491039,-0.26738137006759644,0.002130528911948204,0.003195793367922306,0.3208230137825012,0.993593692779541,9.50857162475586
1713723121992491039,-0.3579288423061371,0.017044231295585632,0.029827404767274857,0.2346317619085312,0.6153098344802856,8.365340232849121
1713723122002491039,-0.20559602975845337,-0.006391586735844612,-0.019174760207533836,-0.4572925269603729,-0.5662286877632141,8.49941635131836
1713723122012491039,-0.09480853378772736,-0.04367584362626076,0.02130528911948204,-0.7541735172271729,-1.4197615385055542,8.977059364318848
1713723122021491039,0.037284255027770996,-0.04580637067556381,0.007456851191818714,0.06464344263076782,-0.8176198601722717,11.353303909301758
1713723122030491039,0.03834952041506767,0.01810949482023716,-0.01065264455974102,0.8655039072036743,-0.7050923705101013,13.885172843933105
1713723122040491039,-0.017044231295585632,0.058589544147253036,-0.02130528911948204,0.8870517015457153,-1.6496049165725708,13.098677635192871
1713723122050491039,0.04367584362626076,0.019174760207533836,-0.029827404767274857,-0.30047231912612915,-2.3977930545806885,9.582792282104492
1713723122059491039,0.08522115647792816,-0.020240023732185364,0.008522115647792816,-0.628477931022644,-1.4209586381912231,7.68778133392334
1713723122069491039,0.26205503940582275,-0.03621898964047432,-0.009587380103766918,0.12689268589019775,0.7158662676811218,7.711723327636719
1713723122078491039,0.23968449234962463,0.00532632227987051,-0.012783173471689224,0.23942016065120697,1.8339585065841675,8.552088737487793
1713723122088491039,0.12889699637889862,0.04687163606286049,-0.01810949482023716,0.13287819921970367,1.7357962131500244,9.837774276733398
1713723122098491039,-0.08522115647792816,0.05645901337265968,-0.002130528911948204,0.1412578970193863,1.037886381149292,10.618284225463867
1713723122107491039,-0.25246766209602356,0.022370552644133568,-0.001065264455974102,0.12449848651885986,0.5363011956214905,10.014945983886719
1713723122117491039,-0.2886866629123688,-0.004261057823896408,0.006391586735844612,-0.12928688526153564,-0.005985504016280174,9.478644371032715
1713723122126491039,-0.1257012039422989,-0.07776430249214172,-0.014913702383637428,-1.0845733880996704,-1.0630255937576294,8.119935035705566
1713723122136491039,-0.0649811327457428,-0.08309062570333481,0.030892668291926384,-0.5303156971931458,-0.9648632407188416,8.608351707458496
1713723122145491039,0.08415588736534119,-0.041545312851667404,-0.014913702383637428,0.7924807667732239,-0.3734954595565796,10.763134002685547
1713723122155491039,0.004261057823896408,0.07137271761894226,-0.00532632227987051,1.0462660789489746,-0.7314286231994629,12.476184844970703
1713723122165491039,-0.05965480953454971,0.09374327212572098,-0.026631610468029976,0.9385270476341248,-1.316810965538025,14.318523406982422
1713723122174491039,0.041545312851667404,0.001065264455974102,-0.02556634694337845,-1.0749965906143188,-2.1116857528686523,10.204087257385254
1713723122184491039,0.06285060197114944,-0.05645901337265968,0.027696875855326653,-1.0845733880996704,-1.315613865852356,7.3693528175354
1713723122193491039,0.27483823895454407,-0.0788295716047287,-0.019174760207533836,0.5781996846199036,0.39384618401527405,7.084442615509033
1713723122203491039,0.22157500684261322,-0.009587380103766918,-0.007456851191818714,0.5877764821052551,1.3922282457351685,8.35456657409668
1713723122213491039,0.12783172726631165,0.03302319720387459,-0.034088462591171265,0.2717418968677521,1.6364368200302124,10.466252326965332
1713723122222491039,-0.07030745595693588,0.06072007119655609,-0.001065264455974102,0.19033902883529663,1.0199298858642578,10.243592262268066
1713723122232491039,-0.23435817658901215,0.037284255027770996,-0.013848437927663326,0.1735796183347702,0.7230489253997803,9.68813705444336
1713723122241491039,-0.2790992856025696,0.03621898964047432,-0.001065264455974102,-0.15322890877723694,0.4357447028160095,9.240421295166016
1713723122251491039,-0.11930961906909943,-0.04048004746437073,-0.030892668291926384,-1.0630255937576294,-1.0043675899505615,8.315062522888184
1713723122260491039,-0.08735168725252151,-0.08628641813993454,0.027696875855326653,-0.7661445140838623,-1.4089876413345337,9.489418029785156
1713723122270491039,0.06178533658385277,-0.0788295716047287,-0.006391586735844612,0.39384618401527405,-0.6356605291366577,11.227608680725098
1713723122280491039,-0.011717909015715122,0.03302319720387459,0.009587380103766918,0.912190854549408,-0.6643909811973572,12.230779647827148
1713723122289491039,-0.03941478580236435,0.08628641813993454,-0.007456851191818714,0.9971849918365479,-0.9660603404045105,12.992135047912598
1713723122299491039,0.07137271761894226,0.05326322093605995,-0.006391586735844612,-0.9971849918365479,-1.6089035272598267,9.402029991149902
1713723122308491039,0.09374327212572098,0.01065264455974102,0.04261057823896408,-1.4401123523712158,-0.910993754863739,7.6303205490112305
1713723122319491039,0.26205503940582275,-0.026631610468029976,0.01810949482023716,-0.19033902883529663,0.6464344263076782,7.64109468460083
