t,gx,gy,gz,ax,ay,az
1713722594484264049,0.004261057823896408,0.003195793367922306,0.00532632227987051,-0.08738835901021957,-0.3543418347835541,10.001777648925781
1713722594494264049,0.004261057823896408,0.003195793367922306,0.00532632227987051,-0.0694318488240242,-0.3495534360408783,10.018536567687988
1713722594504264049,0.004261057823896408,0.003195793367922306,0.00532632227987051,-0.10175357013940811,-0.3794809579849243,10.018536567687988
1713722594513264049,0.003195793367922306,0.002130528911948204,0.00532632227987051,-0.11372458189725876,-0.38786065578460693,10.012551307678223
1713722594523264049,0.004261057823896408,0.002130528911948204,0.00532632227987051,-0.08259996026754379,-0.35673603415489197,10.016142845153809
1713722594532264049,0.004261057823896408,0.003195793367922306,0.00532632227987051,-0.07781155407428741,-0.3495534360408783,10.019734382629395
1713722594542264049,0.004261057823896408,0.002130528911948204,0.00532632227987051,-0.104147769510746,-0.37828385829925537,10.013748168945312
1713722594552264049,0.004261057823896408,0.002130528911948204,0.00532632227987051,-0.09935937076807022,-0.3818751573562622,10.012551307678223
1713722594561264049,0.004261057823896408,0.003195793367922306,0.00532632227987051,-0.07302314788103104,-0.3579331338405609,10.018536567687988
1713722594571264049,0.003195793367922306,0.003195793367922306,0.00532632227987051,-0.08379705995321274,-0.365115761756897,10.010157585144043
1713722594580264049,0.003195793367922306,0.003195793367922306,0.00532632227987051,-0.10534487664699554,-0.38546645641326904,9.998186111450195
1713722594590264049,0.004261057823896408,0.002130528911948204,0.00532632227987051,-0.09576806426048279,-0.37469255924224854,10.011354446411133
1713722594599264049,0.004261057823896408,0.002130528911948204,0.00532632227987051,-0.08140285313129425,-0.3603273630142212,10.023324966430664
1713722594609264049,0.003195793367922306,0.002130528911948204,0.00532632227987051,-0.090979665517807,-0.3711012601852417,10.008959770202637
1713722594619264049,0.003195793367922306,0.003195793367922306,0.00532632227987051,-0.11013327538967133,-0.38546645641326904,10.001777648925781
1713722594629264049,0.003195793367922306,0.003195793367922306,0.006391586735844612,-0.09935937076807022,-0.3758896589279175,10.008959770202637
1713722594638264049,0.004261057823896408,0.003195793367922306,0.00532632227987051,-0.07781155407428741,-0.3579331338405609,10.018536567687988
1713722594647264049,0.004261057823896408,0.003195793367922306,0.00532632227987051,-0.09217676520347595,-0.36750996112823486,10.012551307678223
1713722594657264049,0.004261057823896408,0.003195793367922306,0.00532632227987051,-0.10773907601833344,-0.3842693567276001,10.007762908935547
1713722594667264049,0.004261057823896408,0.002130528911948204,0.006391586735844612,-0.090979665517807,-0.3663128614425659,10.018536567687988
1713722594677264049,0.003195793367922306,0.004261057823896408,0.00532632227987051,-0.08499415963888168,-0.35673603415489197,10.020931243896484
1713722594686264049,0.003195793367922306,0.003195793367922306,0.00532632227987051,-0.10534487664699554,-0.38307225704193115,10.013748168945312
1713722594696264049,0.004261057823896408,0.003195793367922306,0.00532632227987051,-0.10893617570400238,-0.3902548849582672,10.010157585144043
1713722594705264049,0.003195793367922306,0.002130528911948204,0.00532632227987051,-0.08858545869588852,-0.363918662071228,10.014945983886719
1713722594715264049,0.003195793367922306,0.003195793367922306,0.004261057823896408,-0.08140285313129425,-0.35314473509788513,10.017339706420898
1713722594725264049,0.004261057823896408,0.003195793367922306,0.00532632227987051,-0.10055647045373917,-0.3687070608139038,10.008959770202637
1713722594734264049,0.004261057823896408,0.003195793367922306,0.00532632227987051,-0.10654197633266449,-0.3734954595565796,10.008959770202637
1713722594744264049,0.004261057823896408,0.002130528911948204,0.00532632227987051,-0.08858545869588852,-0.355538934469223,10.011354446411133
1713722594753264049,0.004261057823896408,0.002130528911948204,0.004261057823896408,-0.08619125932455063,-0.35673603415489197,10.008959770202637
1713722594763264049,0.004261057823896408,0.002130528911948204,0.00532632227987051,-0.10175357013940811,-0.3758896589279175,10.011354446411133
1713722594772264049,0.004261057823896408,0.002130528911948204,0.00532632227987051,-0.08858545869588852,-0.37469255924224854,10.016142845153809
1713722594782264049,0.004261057823896408,0.003195793367922306,0.00532632227987051,-0.07900865375995636,-0.3663128614425659,10.022128105163574
1713722594792264049,0.004261057823896408,0.003195793367922306,0.00532632227987051,-0.0933738648891449,-0.3770867586135864,10.017339706420898
1713722594801264049,0.004261057823896408,0.003195793367922306,0.00532632227987051,-0.09935937076807022,-0.38546645641326904,10.001777648925781
1713722594811264049,0.003195793367922306,0.002130528911948204,0.00532632227987051,-0.08858545869588852,-0.3687070608139038,10.005369186401367
1713722594820264049,0.004261057823896408,0.002130528911948204,0.00532632227987051,-0.07900865375995636,-0.363918662071228,10.020931243896484
1713722594830264049,0.00532632227987051,0.003195793367922306,0.00532632227987051,-0.09217676520347595,-0.3711012601852417,10.013748168945312
1713722594839264049,0.004261057823896408,0.001065264455974102,0.00532632227987051,-0.10534487664699554,-0.37828385829925537,10.000580787658691
1713722594850264049,0.004261057823896408,0.002130528911948204,0.006391586735844612,-0.09457096457481384,-0.3734954595565796,10.007762908935547
1713722594858264049,0.004261057823896408,0.002130528911948204,0.00532632227987051,-0.08259996026754379,-0.3663128614425659,10.016142845153809
1713722594868264049,0.004261057823896408,0.003195793367922306,0.00532632227987051,-0.10055647045373917,-0.38307225704193115,10.013748168945312
1713722594878264049,0.004261057823896408,0.002130528911948204,0.00532632227987051,-0.10654197633266449,-0.39145198464393616,10.010157585144043
1713722594887264049,0.004261057823896408,0.003195793367922306,0.00532632227987051,-0.08499415963888168,-0.36750996112823486,10.011354446411133
1713722594898264049,0.004261057823896408,0.003195793367922306,0.00532632227987051,-0.07900865375995636,-0.35913026332855225,10.011354446411133
1713722594907264049,0.004261057823896408,0.003195793367922306,0.00532632227987051,-0.09576806426048279,-0.38067805767059326,10.006566047668457
1713722594916264049,0.003195793367922306,0.002130528911948204,0.00532632227987051,-0.104147769510746,-0.38067805767059326,10.006566047668457
1713722594926264049,0.004261057823896408,0.003195793367922306,0.00532632227987051,-0.08499415963888168,-0.355538934469223,10.014945983886719
1713722594935264049,0.004261057823896408,0.003195793367922306,0.004261057823896408,-0.08140285313129425,-0.355538934469223,10.02452278137207
1713722594945264049,0.004261057823896408,0.002130528911948204,0.00532632227987051,-0.09935937076807022,-0.3842693567276001,10.014945983886719
1713722594955264049,0.004261057823896408,0.002130528911948204,0.00532632227987051,-0.09935937076807022,-0.3842693567276001,10.000580787658691
1713722594964264049,0.004261057823896408,0.002130528911948204,0.00532632227987051,-0.08379705995321274,-0.35913026332855225,10.011354446411133
1713722594974264049,0.00532632227987051,0.002130528911948204,0.00532632227987051,-0.08379705995321274,-0.35913026332855225,10.018536567687988
1713722594984264049,0.004261057823896408,0.003195793367922306,0.00532632227987051,-0.10773907601833344,-0.38067805767059326,10.008959770202637
1713722594993264049,0.004261057823896408,0.003195793367922306,0.00532632227987051,-0.10175357013940811,-0.37469255924224854,10.012551307678223
1713722595003264049,0.004261057823896408,0.003195793367922306,0.00532632227987051,-0.07541735470294952,-0.34596213698387146,10.016142845153809
1713722595012264049,0.004261057823896408,0.003195793367922306,0.00532632227987051,-0.08858545869588852,-0.3543418347835541,10.018536567687988
1713722595022264049,0.003195793367922306,0.003195793367922306,0.00532632227987051,-0.10654197633266449,-0.3818751573562622,10.010157585144043
1713722595032264049,0.004261057823896408,0.002130528911948204,0.00532632227987051,-0.08499415963888168,-0.37828385829925537,10.006566047668457
1713722595041264049,0.004261057823896408,0.002130528911948204,0.00532632227987051,-0.07062894850969315,-0.3603273630142212,10.022128105163574
1713722595051264049,0.004261057823896408,0.003195793367922306,0.00532632227987051,-0.0933738648891449,-0.38067805767059326,10.020931243896484
1713722595060264049,0.004261057823896408,0.002130528911948204,0.00532632227987051,-0.10773907601833344,-0.3998316824436188,10.005369186401367
1713722595070264049,0.004261057823896408,0.003195793367922306,0.00532632227987051,-0.09457096457481384,-0.3770867586135864,10.008959770202637
1713722595079264049,0.003195793367922306,0.003195793367922306,0.00532632227987051,-0.07541735470294952,-0.3543418347835541,10.023324966430664
1713722595089264049,0.004261057823896408,0.003195793367922306,0.00532632227987051,-0.090979665517807,-0.3687070608139038,10.018536567687988
1713722595099264049,0.004261057823896408,0.002130528911948204,0.00532632227987051,-0.11611878126859665,-0.3794809579849243,10.005369186401367
1713722595108264049,0.003195793367922306,0.002130528911948204,0.00532632227987051,-0.09816227108240128,-0.35673603415489197,10.011354446411133
1713722595118264049,0.004261057823896408,0.003195793367922306,0.00532632227987051,-0.07541735470294952,-0.355538934469223,10.013748168945312
1713722595127264049,0.004261057823896408,0.003195793367922306,0.004261057823896408,-0.09935937076807022,-0.3842693567276001,10.007762908935547
1713722595137264049,0.004261057823896408,0.003195793367922306,0.00532632227987051,-0.10773907601833344,-0.3890577554702759,10.008959770202637
1713722595147264049,0.004261057823896408,0.002130528911948204,0.006391586735844612,-0.07781155407428741,-0.3663128614425659,10.012551307678223
1713722595156264049,0.004261057823896408,0.002130528911948204,0.00532632227987051,-0.07182604819536209,-0.36750996112823486,10.013748168945312
1713722595166264049,0.004261057823896408,0.002130528911948204,0.004261057823896408,-0.10055647045373917,-0.3890577554702759,10.008959770202637
1713722595175264049,0.004261057823896408,0.002130528911948204,0.00532632227987051,-0.09935937076807022,-0.3818751573562622,10.002974510192871
1713722595185264049,0.003195793367922306,0.002130528911948204,0.00532632227987051,-0.07422025501728058,-0.355538934469223,10.007762908935547
1713722595194264049,0.004261057823896408,0.003195793367922306,0.00532632227987051,-0.08379705995321274,-0.35075053572654724,10.016142845153809
1713722595205264049,0.004261057823896408,0.003195793367922306,0.004261057823896408,-0.11611878126859665,-0.3794809579849243,10.011354446411133
1713722595214264049,0.003195793367922306,0.002130528911948204,0.00532632227987051,-0.11372458189725876,-0.3818751573562622,10.010157585144043
1713722595223264049,0.003195793367922306,0.002130528911948204,0.00532632227987051,-0.07781155407428741,-0.35913026332855225,10.014945983886719
1713722595233264049,0.003195793367922306,0.003195793367922306,0.00532632227987051,-0.08259996026754379,-0.3711012601852417,10.016142845153809
1713722595242264049,0.004261057823896408,0.003195793367922306,0.00532632227987051,-0.10534487664699554,-0.3902548849582672,10.014945983886719
1713722595253264049,0.004261057823896408,0.003195793367922306,0.00532632227987051,-0.09576806426048279,-0.3794809579849243,10.023324966430664
1713722595262264049,0.004261057823896408,0.003195793367922306,0.00532632227987051,-0.07422025501728058,-0.35314473509788513,10.022128105163574
1713722595271264049,0.004261057823896408,0.002130528911948204,0.004261057823896408,-0.09217676520347595,-0.36152446269989014,10.011354446411133
1713722595281264049,0.004261057823896408,0.002130528911948204,0.00532632227987051,-0.11611878126859665,-0.38307225704193115,10.007762908935547
1713722595291264049,0.004261057823896408,0.002130528911948204,0.00532632227987051,-0.09696516394615173,-0.36990416049957275,10.007762908935547
1713722595300264049,0.003195793367922306,0.002130528911948204,0.00532632227987051,-0.07781155407428741,-0.35673603415489197,10.012551307678223
1713722595309264049,0.004261057823896408,0.003195793367922306,0.004261057823896408,-0.08858545869588852,-0.3663128614425659,10.007762908935547
1713722595319264049,0.004261057823896408,0.003195793367922306,0.00532632227987051,-0.10534487664699554,-0.386663556098938,10.006566047668457
1713722595329264049,0.004261057823896408,0.002130528911948204,0.00532632227987051,-0.08978256583213806,-0.37229835987091064,10.016142845153809
1713722595339264049,0.004261057823896408,0.002130528911948204,0.00532632227987051,-0.07422025501728058,-0.3519476354122162,10.02452278137207
1713722595348264049,0.004261057823896408,0.003195793367922306,0.00532632227987051,-0.09935937076807022,-0.3663128614425659,10.019734382629395
1713722595358264049,0.004261057823896408,0.002130528911948204,0.00532632227987051,-0.1149216815829277,-0.37229835987091064,10.011354446411133
1713722595367264049,0.004261057823896408,0.002130528911948204,0.00532632227987051,-0.09457096457481384,-0.3543418347835541,10.011354446411133
1713722595377264049,0.003195793367922306,0.003195793367922306,0.00532632227987051,-0.08140285313129425,-0.3519476354122162,10.020931243896484
1713722595386264049,0.003195793367922306,0.003195793367922306,0.00532632227987051,-0.10055647045373917,-0.3734954595565796,10.019734382629395
1713722595396264049,0.004261057823896408,0.003195793367922306,0.00532632227987051,-0.104147769510746,-0.37828385829925537,10.014945983886719
1713722595406264049,0.004261057823896408,0.003195793367922306,0.006391586735844612,-0.0802057534456253,-0.363918662071228,10.023324966430664
1713722595415264049,0.003195793367922306,0.002130528911948204,0.00532632227987051,-0.07900865375995636,-0.35913026332855225,10.020931243896484
1713722595425264049,0.003195793367922306,0.003195793367922306,0.00532632227987051,-0.10773907601833344,-0.3818751573562622,10.012551307678223
1713722595435264049,0.003195793367922306,0.003195793367922306,0.00532632227987051,-0.10893617570400238,-0.3902548849582672,10.008959770202637
1713722595444264049,0.003195793367922306,0.003195793367922306,0.00532632227987051,-0.08259996026754379,-0.36990416049957275,10.012551307678223
1713722595454264049,0.003195793367922306,0.003195793367922306,0.00532632227987051,-0.0802057534456253,-0.3663128614425659,10.022128105163574
1713722595463264049,0.004261057823896408,0.003195793367922306,0.004261057823896408,-0.10055647045373917,-0.38786065578460693,10.018536567687988
1713722595473264049,0.004261057823896408,0.002130528911948204,0.00532632227987051,-0.104147769510746,-0.38546645641326904,10.011354446411133
1713722595482264049,0.004261057823896408,0.003195793367922306,0.00532632227987051,-0.08499415963888168,-0.365115761756897,10.018536567687988
1713722595492264049,0.004261057823896408,0.004261057823896408,0.00532632227987051,-0.08379705995321274,-0.36750996112823486,10.02452278137207
1713722595501264049,0.003195793367922306,0.003195793367922306,0.00532632227987051,-0.10654197633266449,-0.3818751573562622,10.016142845153809
1713722595512264049,0.004261057823896408,0.002130528911948204,0.00532632227987051,-0.10773907601833344,-0.3734954595565796,10.019734382629395
1713722595521264049,0.004261057823896408,0.003195793367922306,0.00532632227987051,-0.08499415963888168,-0.3519476354122162,10.02811336517334
1713722595530264049,0.004261057823896408,0.003195793367922306,0.00532632227987051,-0.090979665517807,-0.35673603415489197,10.019734382629395
1713722595540264049,0.004261057823896408,0.002130528911948204,0.00532632227987051,-0.11372458189725876,-0.3818751573562622,10.011354446411133
1713722595549264049,0.00532632227987051,0.002130528911948204,0.00532632227987051,-0.10175357013940811,-0.3818751573562622,10.013748168945312
1713722595560264049,0.004261057823896408,0.003195793367922306,0.00532632227987051,-0.07422025501728058,-0.363918662071228,10.014945983886719
1713722595569264049,0.004261057823896408,0.003195793367922306,0.00532632227987051,-0.08858545869588852,-0.3758896589279175,10.018536567687988
1713722595578264049,0.004261057823896408,0.003195793367922306,0.00532632227987051,-0.11013327538967133,-0.3902548849582672,10.017339706420898
1713722595588264049,0.004261057823896408,0.002130528911948204,0.00532632227987051,-0.09696516394615173,-0.3687070608139038,10.008959770202637
1713722595598264049,0.004261057823896408,0.003195793367922306,0.00532632227987051,-0.07781155407428741,-0.3495534360408783,10.013748168945312
1713722595608264049,0.003195793367922306,0.003195793367922306,0.004261057823896408,-0.08738835901021957,-0.3627215623855591,10.012551307678223
1713722595617264049,0.003195793367922306,0.002130528911948204,0.00532632227987051,-0.10175357013940811,-0.3842693567276001,10.016142845153809
1713722595626264049,0.003195793367922306,0.002130528911948204,0.00532632227987051,-0.08619125932455063,-0.3687070608139038,10.02452278137207
1713722595636264049,0.004261057823896408,0.002130528911948204,0.00532632227987051,-0.0802057534456253,-0.35314473509788513,10.020931243896484
1713722595646264049,0.004261057823896408,0.003195793367922306,0.00532632227987051,-0.104147769510746,-0.3794809579849243,10.018536567687988
1713722595655264049,0.004261057823896408,0.002130528911948204,0.00532632227987051,-0.11372458189725876,-0.386663556098938,10.018536567687988
1713722595665264049,0.004261057823896408,0.002130528911948204,0.00532632227987051,-0.090979665517807,-0.36152446269989014,10.022128105163574
1713722595674264049,0.004261057823896408,0.003195793367922306,0.00532632227987051,-0.08140285313129425,-0.35673603415489197,10.02691650390625
1713722595684264049,0.004261057823896408,0.003195793367922306,0.00532632227987051,-0.10295066982507706,-0.3818751573562622,10.014945983886719
1713722595694264049,0.004261057823896408,0.003195793367922306,0.00532632227987051,-0.10534487664699554,-0.3842693567276001,10.011354446411133
1713722595703264049,0.004261057823896408,0.002130528911948204,0.00532632227987051,-0.07900865375995636,-0.36152446269989014,10.018536567687988
1713722595713264049,0.004261057823896408,0.002130528911948204,0.004261057823896408,-0.0802057534456253,-0.3663128614425659,10.019734382629395
1713722595722264049,0.004261057823896408,0.002130528911948204,0.00532632227987051,-0.10295066982507706,-0.38307225704193115,10.010157585144043
1713722595732264049,0.003195793367922306,0.003195793367922306,0.006391586735844612,-0.09457096457481384,-0.3794809579849243,10.007762908935547
1713722595741264049,0.004261057823896408,0.002130528911948204,0.00532632227987051,-0.07541735470294952,-0.355538934469223,10.012551307678223
1713722595751264049,0.004261057823896408,0.003195793367922306,0.00532632227987051,-0.08379705995321274,-0.355538934469223,10.010157585144043
1713722595761264049,0.004261057823896408,0.002130528911948204,0.00532632227987051,-0.10773907601833344,-0.3758896589279175,10.011354446411133
1713722595770264049,0.003195793367922306,0.002130528911948204,0.00532632227987051,-0.09457096457481384,-0.3663128614425659,10.012551307678223
1713722595781264049,0.004261057823896408,0.002130528911948204,0.00532632227987051,-0.07182604819536209,-0.3519476354122162,10.019734382629395
1713722595789264049,0.004261057823896408,0.002130528911948204,0.00532632227987051,-0.08858545869588852,-0.36990416049957275,10.019734382629395
1713722595799264049,0.003195793367922306,0.002130528911948204,0.004261057823896408,-0.10654197633266449,-0.3926490843296051,10.010157585144043
1713722595808264049,0.003195793367922306,0.002130528911948204,0.00532632227987051,-0.08978256583213806,-0.3687070608139038,10.012551307678223
1713722595818264049,0.004261057823896408,0.002130528911948204,0.00532632227987051,-0.08140285313129425,-0.34835633635520935,10.016142845153809
1713722595828264049,0.004261057823896408,0.002130528911948204,0.00532632227987051,-0.09935937076807022,-0.37229835987091064,10.013748168945312
1713722595838264049,0.004261057823896408,0.003195793367922306,0.00532632227987051,-0.10893617570400238,-0.38786065578460693,10.013748168945312
1713722595847264049,0.004261057823896408,0.003195793367922306,0.00532632227987051,-0.090979665517807,-0.3627215623855591,10.019734382629395
1713722595857264049,0.004261057823896408,0.002130528911948204,0.00532632227987051,-0.07661445438861847,-0.3471592366695404,10.019734382629395
1713722595867264049,0.004261057823896408,0.002130528911948204,0.00532632227987051,-0.090979665517807,-0.3663128614425659,10.012551307678223
1713722595876264049,0.004261057823896408,0.002130528911948204,0.00532632227987051,-0.09816227108240128,-0.3770867586135864,10.014945983886719
1713722595885264049,0.004261057823896408,0.003195793367922306,0.00532632227987051,-0.07781155407428741,-0.355538934469223,10.020931243896484
1713722595895264049,0.004261057823896408,0.003195793367922306,0.00532632227987051,-0.07781155407428741,-0.3495534360408783,10.022128105163574
1713722595904264049,0.004261057823896408,0.003195793367922306,0.00532632227987051,-0.10295066982507706,-0.38067805767059326,10.011354446411133
1713722595915264049,0.004261057823896408,0.002130528911948204,0.00532632227987051,-0.10654197633266449,-0.3902548849582672,10.012551307678223
1713722595924264049,0.004261057823896408,0.003195793367922306,0.006391586735844612,-0.08499415963888168,-0.35913026332855225,10.02691650390625
1713722595933264049,0.004261057823896408,0.003195793367922306,0.00532632227987051,-0.08499415963888168,-0.3495534360408783,10.02452278137207
1713722595943264049,0.004261057823896408,0.003195793367922306,0.00532632227987051,-0.10654197633266449,-0.38067805767059326,10.016142845153809
1713722595953264049,0.004261057823896408,0.002130528911948204,0.00532632227987051,-0.10295066982507706,-0.386663556098938,10.016142845153809
1713722595963264049,0.003195793367922306,0.003195793367922306,0.00532632227987051,-0.08738835901021957,-0.3627215623855591,10.020931243896484
1713722595972264049,0.003195793367922306,0.004261057823896408,0.00532632227987051,-0.09457096457481384,-0.36990416049957275,10.017339706420898
1713722595982264049,0.004261057823896408,0.003195793367922306,0.00532632227987051,-0.11013327538967133,-0.39384618401527405,10.013748168945312
1713722595991264049,0.004261057823896408,0.003195793367922306,0.006391586735844612,-0.09457096457481384,-0.3758896589279175,10.020931243896484
1713722596001264049,0.004261057823896408,0.003195793367922306,0.00532632227987051,-0.07182604819536209,-0.3519476354122162,10.023324966430664
1713722596010264049,0.004261057823896408,0.003195793367922306,0.004261057823896408,-0.08499415963888168,-0.36750996112823486,10.013748168945312
1713722596020264049,0.004261057823896408,0.003195793367922306,0.00532632227987051,-0.10055647045373917,-0.38786065578460693,9.999382972717285
1713722596030264049,0.003195793367922306,0.002130528911948204,0.00532632227987051,-0.0933738648891449,-0.3663128614425659,10.004171371459961
1713722596039264049,0.003195793367922306,0.002130528911948204,0.00532632227987051,-0.0802057534456253,-0.34356793761253357,10.022128105163574
1713722596049264049,0.003195793367922306,0.003195793367922306,0.00532632227987051,-0.0933738648891449,-0.365115761756897,10.017339706420898
1713722596058264049,0.004261057823896408,0.003195793367922306,0.00532632227987051,-0.10893617570400238,-0.3926490843296051,10.010157585144043
1713722596068264049,0.004261057823896408,0.003195793367922306,0.00532632227987051,-0.08379705995321274,-0.36750996112823486,10.022128105163574
1713722596077264049,0.004261057823896408,0.003195793367922306,0.004261057823896408,-0.07302314788103104,-0.34596213698387146,10.02571964263916
1713722596087264049,0.004261057823896408,0.003195793367922306,0.00532632227987051,-0.104147769510746,-0.3734954595565796,10.018536567687988
1713722596096264049,0.004261057823896408,0.002130528911948204,0.00532632227987051,-0.11611878126859665,-0.3842693567276001,10.016142845153809
1713722596106264049,0.003195793367922306,0.002130528911948204,0.00532632227987051,-0.090979665517807,-0.3627215623855591,10.022128105163574
1713722596116264049,0.004261057823896408,0.003195793367922306,0.00532632227987051,-0.07900865375995636,-0.36750996112823486,10.018536567687988
1713722596125264049,0.004261057823896408,0.003195793367922306,0.00532632227987051,-0.09696516394615173,-0.39624038338661194,10.006566047668457
1713722596136264049,0.003195793367922306,0.002130528911948204,0.00532632227987051,-0.09576806426048279,-0.3818751573562622,10.007762908935547
1713722596144264049,0.003195793367922306,0.003195793367922306,0.00532632227987051,-0.06584054231643677,-0.34596213698387146,10.014945983886719
1713722596154264049,0.004261057823896408,0.004261057823896408,0.004261057823896408,-0.08259996026754379,-0.34835633635520935,10.011354446411133
1713722596164264049,0.003195793367922306,0.003195793367922306,0.00532632227987051,-0.12210428714752197,-0.3794809579849243,10.001777648925781
1713722596174264049,0.004261057823896408,0.002130528911948204,0.00532632227987051,-0.11133037507534027,-0.38067805767059326,10.010157585144043
1713722596183264049,0.004261057823896408,0.002130528911948204,0.00532632227987051,-0.07781155407428741,-0.355538934469223,10.020931243896484
1713722596193264049,0.004261057823896408,0.003195793367922306,0.00532632227987051,-0.08140285313129425,-0.363918662071228,10.018536567687988
1713722596202264049,0.004261057823896408,0.003195793367922306,0.00532632227987051,-0.10055647045373917,-0.3902548849582672,10.008959770202637
1713722596212264049,0.004261057823896408,0.002130528911948204,0.00532632227987051,-0.08619125932455063,-0.3687070608139038,10.006566047668457
1713722596222264049,0.004261057823896408,0.002130528911948204,0.00532632227987051,-0.07182604819536209,-0.34356793761253357,10.011354446411133
1713722596231264049,0.004261057823896408,0.003195793367922306,0.00532632227987051,-0.0933738648891449,-0.36990416049957275,10.011354446411133
1713722596241264049,0.004261057823896408,0.002130528911948204,0.00532632227987051,-0.11252747476100922,-0.39384618401527405,10.007762908935547
1713722596250264049,0.004261057823896408,0.002130528911948204,0.006391586735844612,-0.090979665517807,-0.3687070608139038,10.004171371459961
1713722596260264049,0.003195793367922306,0.002130528911948204,0.00532632227987051,-0.07062894850969315,-0.3447650372982025,10.010157585144043
1713722596270264049,0.003195793367922306,0.003195793367922306,0.00532632227987051,-0.09217676520347595,-0.3734954595565796,10.018536567687988
1713722596279264049,0.004261057823896408,0.003195793367922306,0.006391586735844612,-0.10893617570400238,-0.3890577554702759,10.012551307678223
1713722596289264049,0.003195793367922306,0.002130528911948204,0.00532632227987051,-0.08858545869588852,-0.355538934469223,10.011354446411133
1713722596298264049,0.004261057823896408,0.003195793367922306,0.00532632227987051,-0.07661445438861847,-0.3423708379268646,10.022128105163574
1713722596308264049,0.004261057823896408,0.003195793367922306,0.00532632227987051,-0.0933738648891449,-0.3734954595565796,10.022128105163574
1713722596318264049,0.004261057823896408,0.003195793367922306,0.00532632227987051,-0.10893617570400238,-0.386663556098938,10.018536567687988
1713722596327264049,0.003195793367922306,0.002130528911948204,0.00532632227987051,-0.08619125932455063,-0.3543418347835541,10.023324966430664
1713722596336264049,0.003195793367922306,0.003195793367922306,0.004261057823896408,-0.07062894850969315,-0.34596213698387146,10.02452278137207
1713722596346264049,0.004261057823896408,0.003195793367922306,0.00532632227987051,-0.09816227108240128,-0.38307225704193115,10.016142845153809
1713722596356264049,0.003195793367922306,0.003195793367922306,0.006391586735844612,-0.10175357013940811,-0.38786065578460693,10.008959770202637
1713722596365264049,0.004261057823896408,0.002130528911948204,0.00532632227987051,-0.07781155407428741,-0.3603273630142212,10.018536567687988
1713722596375264049,0.004261057823896408,0.003195793367922306,0.00532632227987051,-0.07900865375995636,-0.363918662071228,10.023324966430664
1713722596385264049,0.004261057823896408,0.002130528911948204,0.00532632227987051,-0.11013327538967133,-0.3794809579849243,10.011354446411133
1713722596394264049,0.003195793367922306,0.002130528911948204,0.00532632227987051,-0.10534487664699554,-0.37229835987091064,10.012551307678223
1713722596404264049,0.004261057823896408,0.003195793367922306,0.00532632227987051,-0.07541735470294952,-0.3471592366695404,10.02571964263916
1713722596413264049,0.004261057823896408,0.003195793367922306,0.00532632227987051,-0.08140285313129425,-0.3543418347835541,10.020931243896484
1713722596423264049,0.004261057823896408,0.003195793367922306,0.00532632227987051,-0.10773907601833344,-0.3842693567276001,10.007762908935547
1713722596432264049,0.004261057823896408,0.002130528911948204,0.006391586735844612,-0.09935937076807022,-0.3687070608139038,10.006566047668457
1713722596442264049,0.004261057823896408,0.002130528911948204,0.00532632227987051,-0.07661445438861847,-0.3411737382411957,10.008959770202637
1713722596452264049,0.004261057823896408,0.003195793367922306,0.00532632227987051,-0.0933738648891449,-0.3603273630142212,10.011354446411133
1713722596461264049,0.003195793367922306,0.003195793367922306,0.00532632227987051,-0.12210428714752197,-0.38786065578460693,10.004171371459961
1713722596471264049,0.004261057823896408,0.002130528911948204,0.006391586735844612,-0.104147769510746,-0.3770867586135864,10.005369186401367
1713722596481264049,0.004261057823896408,0.003195793367922306,0.00532632227987051,-0.07900865375995636,-0.3519476354122162,10.019734382629395
1713722596490264049,0.004261057823896408,0.003195793367922306,0.004261057823896408,-0.09935937076807022,-0.36990416049957275,10.014945983886719
1713722596500264049,0.004261057823896408,0.002130528911948204,0.00532632227987051,-0.11133037507534027,-0.39863458275794983,10.008959770202637
1713722596509264049,0.004261057823896408,0.002130528911948204,0.00532632227987051,-0.08738835901021957,-0.36750996112823486,10.018536567687988
1713722596519264049,0.004261057823896408,0.002130528911948204,0.004261057823896408,-0.07661445438861847,-0.3471592366695404,10.022128105163574
1713722596528264049,0.004261057823896408,0.002130528911948204,0.00532632227987051,-0.10055647045373917,-0.37828385829925537,10.014945983886719
1713722596538264049,0.004261057823896408,0.002130528911948204,0.00532632227987051,-0.10773907601833344,-0.3890577554702759,10.007762908935547
1713722596548264049,0.003195793367922306,0.002130528911948204,0.00532632227987051,-0.07900865375995636,-0.35913026332855225,10.014945983886719
1713722596557264049,0.004261057823896408,0.003195793367922306,0.00532632227987051,-0.0694318488240242,-0.3519476354122162,10.020931243896484
1713722596567264049,0.003195793367922306,0.003195793367922306,0.00532632227987051,-0.10295066982507706,-0.3842693567276001,10.011354446411133
1713722596576264049,0.004261057823896408,0.002130528911948204,0.00532632227987051,-0.10773907601833344,-0.39145198464393616,10.006566047668457
1713722596586264049,0.004261057823896408,0.003195793367922306,0.00532632227987051,-0.07541735470294952,-0.3543418347835541,10.013748168945312
1713722596596264049,0.004261057823896408,0.003195793367922306,0.00532632227987051,-0.07900865375995636,-0.3519476354122162,10.013748168945312
1713722596605264049,0.003195793367922306,0.003195793367922306,0.00532632227987051,-0.10654197633266449,-0.3890577554702759,10.004171371459961
1713722596615264049,0.003195793367922306,0.003195793367922306,0.00532632227987051,-0.10534487664699554,-0.3890577554702759,10.004171371459961
1713722596625264049,0.003195793367922306,0.002130528911948204,0.00532632227987051,-0.07302314788103104,-0.3543418347835541,10.017339706420898
1713722596634264049,0.004261057823896408,0.003195793367922306,0.004261057823896408,-0.08140285313129425,-0.35673603415489197,10.020931243896484
1713722596643264049,0.004261057823896408,0.003195793367922306,0.00532632227987051,-0.11252747476100922,-0.3890577554702759,10.011354446411133
1713722596653264049,0.004261057823896408,0.002130528911948204,0.00532632227987051,-0.09576806426048279,-0.3734954595565796,10.011354446411133
1713722596663264049,0.004261057823896408,0.002130528911948204,0.00532632227987051,-0.07661445438861847,-0.3423708379268646,10.017339706420898
1713722596672264049,0.004261057823896408,0.003195793367922306,0.00532632227987051,-0.08619125932455063,-0.363918662071228,10.012551307678223
1713722596682264049,0.004261057823896408,0.003195793367922306,0.00532632227987051,-0.09935937076807022,-0.3926490843296051,10.006566047668457
1713722596692264049,0.003195793367922306,0.002130528911948204,0.006391586735844612,-0.08978256583213806,-0.36990416049957275,10.014945983886719
1713722596701264049,0.002130528911948204,0.003195793367922306,0.00532632227987051,-0.07541735470294952,-0.3471592366695404,10.02811336517334
1713722596711264049,0.003195793367922306,0.004261057823896408,0.00532632227987051,-0.09457096457481384,-0.3711012601852417,10.022128105163574
1713722596720264049,0.004261057823896408,0.002130528911948204,0.00532632227987051,-0.1173158809542656,-0.38546645641326904,10.002974510192871
1713722596730264049,0.004261057823896408,0.002130528911948204,0.00532632227987051,-0.0933738648891449,-0.36152446269989014,10.007762908935547
1713722596740264049,0.003195793367922306,0.002130528911948204,0.00532632227987051,-0.07062894850969315,-0.34835633635520935,10.020931243896484
1713722596749264049,0.003195793367922306,0.003195793367922306,0.004261057823896408,-0.09457096457481384,-0.37229835987091064,10.012551307678223
1713722596759264049,0.004261057823896408,0.002130528911948204,0.00532632227987051,-0.10654197633266449,-0.3842693567276001,10.001777648925781
1713722596768264049,0.003195793367922306,0.002130528911948204,0.00532632227987051,-0.10055647045373917,-0.3292027413845062,10.193313598632812
1713722596778264049,0.015978965908288956,0.002130528911948204,0.004261057823896408,-0.040701426565647125,-0.30286651849746704,10.11909294128418
1713722596787264049,0.014913702383637428,0.008522115647792816,0.009587380103766918,-0.017956512048840523,0.06823474913835526,10.56920337677002
1713722596797264049,0.04687163606286049,0.012783173471689224,0.00532632227987051,-0.0035913025494664907,0.42856210470199585,10.587160110473633
1713722596807264049,0.07456851005554199,0.009587380103766918,0.0,-0.0347159244120121,0.4118026793003082,9.137470245361328
1713722596816264049,0.06072007119655609,0.007456851191818714,0.007456851191818714,-0.20470423996448517,1.3694833517074585,10.087968826293945
1713722596826264049,0.06924218684434891,0.002130528911948204,0.002130528911948204,-0.2825157940387726,2.4384944438934326,11.39280891418457
1713722596830297883,0.08415588736534119,-0.008522115647792816,0.002130528911948204,-0.1412578970193863,2.0626046657562256,9.238027572631836
1713722596840297883,0.03302319720387459,-0.008522115647792816,0.007456851191818714,0.15921440720558167,2.0841524600982666,8.683769226074219
1713722596849297883,-0.014913702383637428,-0.003195793367922306,-0.007456851191818714,0.36152446269989014,3.2393548488616943,11.256339073181152
1713722596858297883,0.00532632227987051,0.01065264455974102,0.0,0.3579331338405609,2.7964274883270264,10.037690162658691
1713722596868297883,-0.02130528911948204,0.022370552644133568,-0.011717909015715122,0.20350714027881622,1.6843209266662598,8.136693954467773
1713722596877297883,-0.05965480953454971,0.03302319720387459,0.006391586735844612,-0.14365209639072418,2.190694570541382,10.599130630493164
1713722596888297883,-0.020240023732185364,0.02130528911948204,-0.01065264455974102,-0.50876784324646,2.0171148777008057,10.492588996887207
1713722596897297883,-0.024501081556081772,0.004261057823896408,0.007456851191818714,-0.7326257228851318,1.2234370708465576,8.87410831451416
1713722596906297883,-0.047936901450157166,-0.01065264455974102,0.006391586735844612,-0.6991068720817566,1.623268723487854,10.521319389343262
1713722596916297883,-0.013848437927663326,-0.02876213937997818,0.001065264455974102,-0.3387795388698578,1.4939818382263184,10.368090629577637
1713722596926297883,-0.03941478580236435,-0.023435818031430244,0.020240023732185364,0.22505494952201843,1.1240776777267456,10.243592262268066
1713722596935297883,-0.03515372797846794,-0.007456851191818714,0.001065264455974102,0.6775590777397156,1.0271124839782715,10.958260536193848
1713722596945297883,-0.030892668291926384,0.020240023732185364,0.01065264455974102,0.7912836670875549,0.20949263870716095,9.477447509765625
1713722596954297883,-0.058589544147253036,0.04687163606286049,0.002130528911948204,0.43095630407333374,-0.07302314788103104,10.092757225036621
1713722596964297883,-0.001065264455974102,0.03621898964047432,-0.007456851191818714,-0.6787561774253845,-0.910993754863739,10.02452278137207
1713722596973297883,-0.003195793367922306,0.017044231295585632,0.023435818031430244,-0.790086567401886,-1.2282254695892334,9.004592895507812
1713722596983297883,0.024501081556081772,0.001065264455974102,0.004261057823896408,-0.15682020783424377,-0.1388636976480484,9.32541561126709
1713722596993297883,-0.02556634694337845,0.007456851191818714,0.014913702383637428,-0.19033902883529663,0.5039794445037842,9.819818496704102
1713722597002297883,-0.0884169489145279,0.004261057823896408,-0.00532632227987051,-0.11252747476100922,0.33039984107017517,10.830171585083008
1713722597012297883,-0.0788295716047287,-0.037284255027770996,-0.008522115647792816,-1.6316484212875366,-2.495955228805542,11.222820281982422
1713722597021297883,-0.05965480953454971,-0.10013485699892044,0.023435818031430244,-2.2613234519958496,-5.193023204803467,10.351330757141113
1713722597031297883,-0.022370552644133568,-0.10013485699892044,0.041545312851667404,1.0426747798919678,-3.6595373153686523,10.06043529510498
1713722597040297883,0.030892668291926384,-0.013848437927663326,-0.023435818031430244,3.487154722213745,-1.6974890232086182,10.002974510192871
1713722597050297883,0.04048004746437073,0.10759171098470688,-0.019174760207533836,2.828749179840088,-1.723825216293335,9.14345645904541
1713722597061297883,0.05965480953454971,0.12889699637889862,-0.06178533658385277,-0.2609679698944092,-2.3295581340789795,9.611522674560547
1713722597069297883,0.04580637067556381,0.08202536404132843,0.003195793367922306,-2.4576480388641357,-2.0853495597839355,9.264363288879395
1713722597079297883,-0.012783173471689224,-0.001065264455974102,-0.009587380103766918,-1.8363527059555054,-0.19273322820663452,10.163386344909668
1713722597088297883,-0.041545312851667404,-0.04048004746437073,0.015978965908288956,-1.0235211849212646,0.2238578498363495,11.137825965881348
1713722597099297883,-0.06391586363315582,-0.06711165606975555,-0.007456851191818714,-0.7086836695671082,-1.4293383359909058,10.047266960144043
1713722597108297883,-0.04048004746437073,-0.058589544147253036,0.03515372797846794,0.090979665517807,-2.3331494331359863,9.853337287902832
1713722597117297883,0.006391586735844612,-0.013848437927663326,-0.003195793367922306,1.5705963373184204,-1.6292542219161987,10.14902114868164
1713722597127297883,0.049002163112163544,0.06285060197114944,-0.002130528911948204,1.7094600200653076,-0.5482721924781799,10.99896240234375
1713722597136297883,0.09693906456232071,0.10759171098470688,-0.015978965908288956,0.06224924325942993,-0.26575639843940735,10.934318542480469
1713722597147297883,0.10439591109752655,0.08948221057653427,0.007456851191818714,-1.578976035118103,0.22744916379451752,10.322600364685059
1713722597156297883,0.12463594228029251,0.02876213937997818,0.022370552644133568,-2.120065689086914,1.2988543510437012,9.916783332824707
1713722597165297883,0.11078750342130661,-0.03621898964047432,0.03302319720387459,-1.8255788087844849,2.343923330307007,9.892841339111328
1713722597175297883,0.10546118021011353,-0.07669904083013535,0.049002163112163544,-0.9241618514060974,2.919728994369507,9.406818389892578
1713722597185297883,0.06391586363315582,-0.07350324839353561,0.04261057823896408,0.35913026332855225,3.1675288677215576,8.704119682312012
1713722597195297883,0.006391586735844612,-0.037284255027770996,0.03515372797846794,1.2318167686462402,3.555389404296875,9.463082313537598
1713722597204297883,-0.03941478580236435,0.002130528911948204,0.008522115647792816,1.2892775535583496,3.465606927871704,9.829395294189453
1713722597213297883,-0.07776430249214172,0.037284255027770996,0.024501081556081772,0.9241618514060974,2.8119897842407227,9.601945877075195
1713722597223297883,-0.11504855751991272,0.05326322093605995,0.008522115647792816,0.48482584953308105,2.142810583114624,9.982624053955078
1713722597233297883,-0.12889699637889862,0.05645901337265968,0.014913702383637428,-0.002394201699644327,1.4676456451416016,10.338162422180176
1713722597242297883,-0.11398329585790634,0.03621898964047432,0.004261057823896408,-0.912190854549408,0.23822306096553802,10.834959983825684
1713722597252297883,-0.047936901450157166,-0.023435818031430244,0.006391586735844612,-2.1368250846862793,-1.820790410041809,10.430339813232422
1713722597261297883,-0.019174760207533836,-0.06072007119655609,0.058589544147253036,-0.8750807046890259,-1.823184609413147,9.787496566772461
1713722597271297883,0.05432848632335663,-0.05432848632335663,0.00532632227987051,1.479616641998291,-0.4034229815006256,9.229647636413574
1713722597280297883,0.041545312851667404,0.009587380103766918,0.012783173471689224,1.9225438833236694,0.40462008118629456,8.90882396697998
1713722597290297883,-0.004261057823896408,0.06604639440774918,-0.02556634694337845,1.3287819623947144,1.5406687259674072,10.11789608001709
1713722597300297883,-0.0884169489145279,0.08948221057653427,-0.014913702383637428,0.14844051003456116,1.8483237028121948,11.619060516357422
1713722597309297883,-0.11185276508331299,0.034088462591171265,-0.026631610468029976,-2.43011474609375,-0.772130012512207,12.387598991394043
1713722597319297883,-0.047936901450157166,-0.10120011866092682,0.012783173471689224,-4.526238441467285,-5.4839186668396,10.791864395141602
1713722597329297883,0.017044231295585632,-0.15126754343509674,0.08415588736534119,-0.788889467716217,-4.610035419464111,10.101137161254883
1713722597338297883,0.19813919067382812,-0.09161274135112762,-0.019174760207533836,3.4105403423309326,-1.194706678390503,8.763975143432617
1713722597348297883,0.18642127513885498,0.02876213937997818,-0.007456851191818714,3.2082302570343018,0.25498247146606445,7.969099998474121
1713722597357297883,0.15126754343509674,0.11717908829450607,-0.04580637067556381,1.7741034030914307,2.3475146293640137,9.315838813781738
1713722597367297883,0.04580637067556381,0.14700649678707123,-0.013848437927663326,-0.07182604819536209,3.663128614425659,9.440337181091309
1713722597377297883,-0.1257012039422989,0.11291802674531937,-0.00532632227987051,-1.3299790620803833,3.932476282119751,10.51413631439209
1713722597386297883,-0.24501082301139832,0.05645901337265968,-0.003195793367922306,-1.9716250896453857,2.4660277366638184,10.690110206604004
1713722597396297883,-0.185356006026268,-0.0788295716047287,-0.003195793367922306,-4.177881717681885,-2.449268341064453,9.246406555175781
1713722597405297883,-0.14168016612529755,-0.1757686287164688,0.06604639440774918,-2.93888258934021,-4.89494514465332,8.62511157989502
1713722597415297883,0.020240023732185364,-0.15233281254768372,0.03302319720387459,2.251746654510498,-1.9476830959320068,9.616311073303223
1713722597425297883,0.04580637067556381,-0.030892668291926384,0.0,4.113238334655762,0.4800374209880829,10.9307279586792
1713722597434297883,0.020240023732185364,0.1022653877735138,-0.03195793181657791,3.4991257190704346,1.0558428764343262,11.259930610656738
1713722597444297883,-0.09161274135112762,0.19174760580062866,-0.008522115647792816,1.6304513216018677,0.6105214357376099,12.610260009765625
1713722597454297883,0.00532632227987051,0.092678003013134,-0.07030745595693588,-3.6595373153686523,-3.7050271034240723,11.508927345275879
1713722597463297883,0.049002163112163544,-0.03621898964047432,0.06924218684434891,-5.232527732849121,-6.386532783508301,8.793902397155762
1713722597473297883,0.18322548270225525,-0.11185276508331299,0.017044231295585632,-0.4321534037590027,-1.7585411071777344,8.967482566833496
1713722597482297883,0.21092236042022705,-0.09161274135112762,-0.014913702383637428,1.9919757843017578,2.096123456954956,9.276334762573242
1713722597492297883,0.1533980816602707,-0.034088462591171265,-0.055393751710653305,1.6567875146865845,2.9269115924835205,8.488641738891602
1713722597502297883,0.00532632227987051,0.008522115647792816,-0.029827404767274857,1.2976572513580322,3.618835926055908,9.41519832611084
1713722597511297883,-0.1257012039422989,0.03302319720387459,-0.06391586363315582,1.0678139925003052,3.2968156337738037,10.442310333251953
1713722597521297883,-0.2322276532649994,0.05645901337265968,-0.04261057823896408,1.0833762884140015,1.7322049140930176,9.63306999206543
1713722597530297883,-0.25779399275779724,0.08415588736534119,-0.05645901337265968,1.191115379333496,0.14724339544773102,8.864531517028809
1713722597540297883,-0.1576591432094574,0.044741105288267136,-0.10972223430871964,-0.9145850539207458,-2.983175277709961,9.008183479309082
1713722597549297883,-0.09693906456232071,-0.034088462591171265,-0.04580637067556381,-2.252943754196167,-4.322731018066406,10.830171585083008
1713722597559297883,-0.01810949482023716,-0.06924218684434891,-0.05965480953454971,0.4572925269603729,-1.6352397203445435,12.680889129638672
1713722597569297883,-0.013848437927663326,-0.008522115647792816,-0.08309062570333481,2.626439332962036,-0.44173020124435425,12.6737060546875
1713722597578297883,0.030892668291926384,0.044741105288267136,-0.13848437368869781,1.3922282457351685,-2.7126305103302,10.915164947509766
1713722597588297883,0.08948221057653427,0.041545312851667404,-0.11824434995651245,-0.50876784324646,-4.255693435668945,8.78312873840332
1713722597597297883,0.15872439742088318,0.01810949482023716,-0.10865697264671326,0.020350713282823563,-1.6591817140579224,8.740033149719238
1713722597607297883,0.18216021358966827,0.015978965908288956,-0.15233281254768372,0.9768342971801758,1.3407529592514038,9.191340446472168
1713722597617297883,0.10546118021011353,0.026631610468029976,-0.16405072808265686,0.8307879567146301,2.5474305152893066,8.744821548461914
1713722597626297883,-0.041545312851667404,0.03195793181657791,-0.16937704384326935,0.6452373266220093,3.1878795623779297,9.691728591918945
1713722597636297883,-0.1576591432094574,0.02130528911948204,-0.20240023732185364,0.4453215003013611,2.5450363159179688,9.940725326538086
1713722597645297883,-0.23755396902561188,0.008522115647792816,-0.18322548270225525,0.36152446269989014,0.9253589510917664,9.66539192199707
1713722597655297883,-0.16618125140666962,-0.04580637067556381,-0.2364886999130249,-0.38067805767059326,-2.2158336639404297,9.278728485107422
1713722597665297883,-0.13209278881549835,-0.08415588736534119,-0.18322548270225525,-0.25737667083740234,-4.116829872131348,10.211270332336426
1713722597674297883,-0.058589544147253036,-0.055393751710653305,-0.20985709130764008,2.5761609077453613,-2.7329812049865723,12.929885864257812
1713722597684297883,0.029827404767274857,0.03941478580236435,-0.25779399275779724,2.979583978652954,-2.9903578758239746,12.755109786987305
1713722597693297883,0.11824434995651245,0.0884169489145279,-0.29507824778556824,0.23822306096553802,-4.759673118591309,10.056843757629395
1713722597703297883,0.1672465205192566,0.07776430249214172,-0.24927188456058502,-0.1735796183347702,-2.7497406005859375,9.186552047729492
1713722597712297883,0.2322276532649994,0.01810949482023716,-0.3195793330669403,0.4944026470184326,0.45848962664604187,8.35456657409668
1713722597722297883,0.148071750998497,0.003195793367922306,-0.2929477095603943,0.4824316203594208,2.22660756111145,8.313865661621094
1713722597732297883,0.017044231295585632,0.009587380103766918,-0.324905663728714,0.652419924736023,3.8522703647613525,10.286687850952148
1713722597741297883,-0.10439591109752655,0.023435818031430244,-0.32597091794013977,0.6308721303939819,3.355473518371582,9.828197479248047
1713722597751297883,-0.21411815285682678,0.022370552644133568,-0.3291667103767395,0.4704606235027313,1.6124948263168335,8.923189163208008
1713722597761297883,-0.23435817658901215,0.007456851191818714,-0.3472762107849121,0.03711012750864029,-0.18555063009262085,9.834183692932129
1713722597770297883,-0.13528858125209808,-0.047936901450157166,-0.3611246347427368,-0.9074024558067322,-3.181894063949585,9.62947940826416
1713722597780297883,-0.11078750342130661,-0.07350324839353561,-0.32597091794013977,0.07062894850969315,-3.867832899093628,11.019312858581543
1713722597789297883,-0.027696875855326653,-0.023435818031430244,-0.35047200322151184,3.005920171737671,-2.5749638080596924,13.227964401245117
1713722597799297883,0.058589544147253036,0.05752427875995636,-0.399474173784256,2.139219284057617,-4.036623954772949,11.780669212341309
1713722597808297883,0.13315805792808533,0.09480853378772736,-0.37816888093948364,-0.2992752194404602,-4.6507368087768555,9.136273384094238
1713722597818297883,0.21092236042022705,0.06711165606975555,-0.3888215124607086,0.2454056739807129,-1.5634137392044067,8.619126319885254
1713722597828297883,0.2183792144060135,0.03515372797846794,-0.4069310128688812,0.6859387755393982,1.625662922859192,9.129091262817383
1713722597837297883,0.13209278881549835,0.026631610468029976,-0.41545313596725464,0.27054479718208313,3.1495723724365234,9.008183479309082
1713722597847297883,-0.023435818031430244,0.03195793181657791,-0.4090615510940552,0.10295066982507706,3.734954595565796,9.368511199951172
1713722597856297883,-0.16511598229408264,0.03195793181657791,-0.42823630571365356,0.040701426565647125,3.0526070594787598,9.62947940826416
1713722597866297883,-0.23968449234962463,0.023435818031430244,-0.41012680530548096,0.02274491637945175,1.2461819648742676,9.08958625793457
1713722597875297883,-0.20240023732185364,-0.02556634694337845,-0.4442152678966522,-0.9397241473197937,-1.721431016921997,9.230844497680664
1713722597885297883,-0.13741911947727203,-0.09054747968912125,-0.3984088897705078,-1.5310919284820557,-4.394556999206543,11.390414237976074
1713722597895297883,-0.04687163606286049,-0.06285060197114944,-0.3749730885028839,1.7585411071777344,-4.377797603607178,13.170503616333008
1713722597904297883,0.05965480953454971,0.047936901450157166,-0.42823630571365356,3.2190041542053223,-3.9217023849487305,12.167332649230957
1713722597914297883,0.14487595856189728,0.13209278881549835,-0.4506068527698517,1.0031704902648926,-3.7158010005950928,9.767146110534668
1713722597923297883,0.19813919067382812,0.13848437368869781,-0.42930155992507935,-0.043095629662275314,-1.3670891523361206,8.542511940002441
1713722597933297883,0.20240023732185364,0.08202536404132843,-0.4495415985584259,-0.895431399345398,1.3299790620803833,8.451531410217285
1713722597943297883,0.11185276508331299,0.012783173471689224,-0.45167210698127747,-1.4628572463989258,2.9496564865112305,8.974664688110352
1713722597952297883,-0.029827404767274857,-0.03302319720387459,-0.41971418261528015,-1.0187327861785889,3.6104559898376465,9.909600257873535
1713722597962297883,-0.16405072808265686,-0.04580637067556381,-0.4442152678966522,0.06703764945268631,2.7700912952423096,9.981427192687988
1713722597972297883,-0.2322276532649994,-0.022370552644133568,-0.4122573435306549,1.0869675874710083,0.9205705523490906,9.246406555175781
1713722597982297883,-0.20240023732185364,-0.00532632227987051,-0.4676510989665985,0.8415618538856506,-1.5873557329177856,9.849745750427246
1713722597991297883,-0.09906959533691406,-0.022370552644133568,-0.44208472967147827,-0.6380547285079956,-4.537012100219727,10.977415084838867
1713722598000297883,-0.030892668291926384,-0.017044231295585632,-0.41012680530548096,0.28371289372444153,-4.697423458099365,11.988965034484863
1713722598010297883,0.058589544147253036,0.05326322093605995,-0.4314320981502533,2.4205379486083984,-2.608482599258423,11.802217483520508
1713722598019297883,0.11824434995651245,0.1299622654914856,-0.4580637216567993,1.5155296325683594,-2.117671251296997,9.610325813293457
1713722598030297883,0.13528858125209808,0.14061491191387177,-0.44847631454467773,-0.17238251864910126,-1.1264718770980835,8.710105895996094
1713722598039297883,0.1619201898574829,0.08735168725252151,-0.4538026452064514,-1.0905588865280151,0.8212111592292786,8.596381187438965
1713722598048297883,0.08309062570333481,0.030892668291926384,-0.4303668439388275,-1.5670050382614136,2.335543632507324,9.272743225097656
1713722598058297883,-0.024501081556081772,-0.011717909015715122,-0.43356263637542725,-1.0881646871566772,3.0394389629364014,10.181342124938965
1713722598068297883,-0.13528858125209808,-0.01810949482023716,-0.4207794666290283,-0.27892449498176575,2.213439464569092,9.697713851928711
1713722598077297883,-0.19174760580062866,-0.01065264455974102,-0.4356931447982788,0.28730419278144836,0.6727706789970398,9.174580574035645
1713722598087297883,-0.14913702011108398,-0.027696875855326653,-0.44315001368522644,-0.06703764945268631,-1.6867151260375977,9.750386238098145
1713722598096297883,-0.08948221057653427,-0.04367584362626076,-0.4122573435306549,-0.6596025824546814,-3.554192304611206,11.346121788024902
1713722598106297883,-0.011717909015715122,-0.01810949482023716,-0.4133225977420807,0.08619125932455063,-3.575740098953247,12.474987983703613
1713722598116297883,0.07563377171754837,0.03302319720387459,-0.4090615510940552,0.690727174282074,-3.5027170181274414,11.39520263671875
1713722598125297883,0.1257012039422989,0.08309062570333481,-0.3952130973339081,0.8607155084609985,-2.4217350482940674,9.489418029785156
1713722598135297883,0.20772656798362732,0.09587380290031433,-0.4037352204322815,0.6931213736534119,-0.29209259152412415,7.973888397216797
1713722598144297883,0.16085493564605713,0.10972223430871964,-0.39095205068588257,-0.4058171808719635,1.7812860012054443,8.356961250305176
1713722598154297883,0.05752427875995636,0.09480853378772736,-0.39627838134765625,-1.5107412338256836,3.485957622528076,10.013748168945312
1713722598163297883,-0.09693906456232071,0.04048004746437073,-0.36432042717933655,-2.233790159225464,3.405751943588257,10.63863468170166
1713722598173297883,-0.2045307755470276,-0.019174760207533836,-0.33236250281333923,-2.0171148777008057,1.7860743999481201,10.212467193603516
1713722598183297883,-0.17363810539245605,-0.07456851005554199,-0.3153182864189148,-1.6962919235229492,-1.4832079410552979,8.973467826843262
1713722598192297883,-0.12250541150569916,-0.08628641813993454,-0.28442561626434326,-0.8008604645729065,-3.3231518268585205,8.687360763549805
1713722598202297883,-0.04580637067556381,-0.03302319720387459,-0.2822950780391693,1.4496891498565674,-1.7980453968048096,10.384849548339844
1713722598211297883,-0.01065264455974102,0.0788295716047287,-0.30360037088394165,2.2649147510528564,-0.6739677786827087,12.392387390136719
1713722598221297883,0.07137271761894226,0.12676647305488586,-0.324905663728714,-0.99479079246521,-2.7988216876983643,11.775880813598633
1713722598230297883,0.10120011866092682,0.07989483326673508,-0.24927188456058502,-3.711012601852417,-4.073734283447266,9.603142738342285
1713722598241297883,0.14594122767448425,0.006391586735844612,-0.23116238415241241,-2.167949676513672,-0.9277531504631042,9.425971984863281
1713722598250297883,0.12783172726631165,-0.022370552644133568,-0.2269013226032257,-0.47644612193107605,1.9405004978179932,10.070012092590332
1713722598260297883,0.04048004746437073,-0.004261057823896408,-0.22157500684261322,-0.07781155407428741,2.315192937850952,9.546878814697266
1713722598269297883,-0.07456851005554199,0.02876213937997818,-0.20133498311042786,-0.03950432687997818,1.8806453943252563,9.502586364746094
1713722598279297883,-0.13209278881549835,0.047936901450157166,-0.1949433982372284,-0.35673603415489197,0.8619126081466675,9.549273490905762
1713722598289297883,-0.06924218684434891,0.01810949482023716,-0.18322548270225525,-1.768117904663086,-1.6747440099716187,8.78073501586914
1713722598298297883,-0.052197955548763275,-0.022370552644133568,-0.1395496428012848,-2.183511972427368,-2.5246856212615967,9.23323917388916
1713722598307297883,-0.004261057823896408,-0.034088462591171265,-0.1257012039422989,-0.4273650050163269,-0.5937620401382446,11.046846389770508
1713722598317297883,-0.029827404767274857,0.01065264455974102,-0.1203748807311058,0.7182605266571045,0.21787235140800476,12.465411186218262
1713722598326297883,0.01810949482023716,0.029827404767274857,-0.1395496428012848,-0.8056488633155823,-2.165555477142334,11.598710060119629
1713722598337297883,0.06072007119655609,0.01065264455974102,-0.08096009492874146,-2.6204538345336914,-4.383783340454102,8.989029884338379
1713722598346297883,0.13528858125209808,-0.004261057823896408,-0.05965480953454971,-1.0319008827209473,-1.8638859987258911,8.5903959274292
1713722598356297883,0.18642127513885498,0.014913702383637428,-0.0788295716047287,0.7086836695671082,1.3503297567367554,8.938752174377441
1713722598365297883,0.11185276508331299,0.055393751710653305,-0.06924218684434891,0.4273650050163269,2.7437551021575928,9.169792175292969
1713722598375297883,-0.044741105288267136,0.0788295716047287,-0.058589544147253036,-0.4189852774143219,3.4775779247283936,10.892420768737793
1713722598384297883,-0.19387812912464142,0.06285060197114944,-0.052197955548763275,-1.2737152576446533,2.2469582557678223,11.749545097351074
1713722598394297883,-0.1299622654914856,-0.055393751710653305,-0.041545312851667404,-4.088099479675293,-3.383007049560547,10.158597946166992
1713722598403297883,-0.07137271761894226,-0.14487595856189728,0.05645901337265968,-3.6619315147399902,-6.445190906524658,8.146270751953125
1713722598413297883,0.10439591109752655,-0.1203748807311058,0.02130528911948204,1.6364368200302124,-2.4624364376068115,9.319430351257324
1713722598423297883,0.15978966653347015,0.002130528911948204,-0.011717909015715122,3.4308910369873047,0.8930371999740601,10.63743782043457
1713722598432297883,0.1065264418721199,0.11504855751991272,-0.037284255027770996,2.212242364883423,1.7932569980621338,10.38963794708252
1713722598442297883,-0.027696875855326653,0.17789916694164276,0.003195793367922306,0.5147533416748047,1.9285293817520142,11.136629104614258
1713722598451297883,-0.08735168725252151,0.13102751970291138,-0.02130528911948204,-2.7234044075012207,0.13407529890537262,11.993753433227539
1713722598461297883,-0.009587380103766918,0.002130528911948204,0.06178533658385277,-4.661510467529297,-3.6822822093963623,8.916007041931152
1713722598471297883,0.02556634694337845,-0.055393751710653305,0.08415588736534119,-2.0003554821014404,-2.8778305053710938,7.727285861968994
1713722598480297883,0.14487595856189728,-0.049002163112163544,0.07137271761894226,0.7781155109405518,0.4920084476470947,8.652645111083984
1713722598490297883,0.05006742849946022,0.020240023732185364,0.05645901337265968,0.9828197956085205,2.123656988143921,9.921571731567383
1713722598499297883,-0.07030745595693588,0.07137271761894226,0.06391586363315582,0.33758243918418884,2.9676129817962646,12.344503402709961
1713722598509297883,-0.15126754343509674,0.047936901450157166,0.05432848632335663,-1.98958158493042,0.33039984107017517,12.628216743469238
1713722598518297883,-0.05006742849946022,-0.08096009492874146,0.07776430249214172,-5.114014625549316,-5.416881084442139,9.746794700622559
1713722598528297883,0.002130528911948204,-0.13635385036468506,0.19281286001205444,-2.22660756111145,-5.031414985656738,8.051700592041016
1713722598538297883,0.19707392156124115,-0.09693906456232071,0.09480853378772736,2.29484224319458,-0.6117185354232788,8.486248016357422
1713722598547297883,0.13102751970291138,0.029827404767274857,0.13848437368869781,2.4408886432647705,1.4449007511138916,9.561244010925293
1713722598558297883,0.049002163112163544,0.12357067316770554,0.11717908829450607,1.3946224451065063,3.0358476638793945,11.245565414428711
1713722598566297883,-0.0884169489145279,0.15552860498428345,0.14594122767448425,-0.4453215003013611,2.602497100830078,10.612298965454102
1713722598576297883,-0.12463594228029251,0.08309062570333481,0.14594122767448425,-3.6176388263702393,-0.08738835901021957,10.588356971740723
1713722598586297883,-0.049002163112163544,-0.044741105288267136,0.2183792144060135,-4.987122058868408,-3.8091747760772705,8.559270858764648
1713722598595297883,0.001065264455974102,-0.08735168725252151,0.2364886999130249,-1.6412252187728882,-2.358288526535034,8.251616477966309
1713722598605297883,0.08415588736534119,-0.06817692518234253,0.2034655064344406,1.1875240802764893,0.751779317855835,9.537302017211914
1713722598615297883,-0.020240023732185364,0.006391586735844612,0.1896170675754547,1.2737152576446533,1.4724340438842773,11.070788383483887
1713722598624297883,-0.1203748807311058,0.044741105288267136,0.1992044448852539,0.5398924946784973,1.1085153818130493,13.364433288574219
1713722598634297883,-0.04687163606286049,-0.02876213937997818,0.1619201898574829,-2.5306711196899414,-3.6164417266845703,10.936713218688965
1713722598643297883,-0.011717909015715122,-0.0884169489145279,0.28442561626434326,-2.8143839836120605,-5.871779441833496,8.044517517089844
1713722598653297883,0.148071750998497,-0.05645901337265968,0.23755396902561188,0.7996633648872375,-2.0183119773864746,8.38688850402832
1713722598662297883,0.16511598229408264,0.03834952041506767,0.24288028478622437,1.8519150018692017,1.5107412338256836,9.59596061706543
1713722598672297883,0.10333064943552017,0.10439591109752655,0.2173139452934265,0.7015010714530945,2.9269115924835205,9.84615421295166
1713722598682297883,-0.05752427875995636,0.12144014239311218,0.26631611585617065,-1.1049240827560425,3.137601375579834,10.382455825805664
1713722598692297883,-0.16511598229408264,0.05006742849946022,0.24714134633541107,-3.154360771179199,1.6101006269454956,11.890802383422852
1713722598701297883,-0.11078750342130661,-0.08628641813993454,0.3142530024051666,-4.5190558433532715,-2.78086519241333,9.63187313079834
1713722598710297883,-0.09161274135112762,-0.13528858125209808,0.3568635880947113,-1.98958158493042,-3.88818359375,8.179789543151855
1713722598720297883,0.013848437927663326,-0.09161274135112762,0.3099919557571411,1.6053122282028198,-1.2892775535583496,9.985017776489258
1713722598730297883,-0.015978965908288956,0.00532632227987051,0.3099919557571411,2.4001872539520264,-0.15682020783424377,11.536460876464844
1713722598739297883,0.012783173471689224,0.05645901337265968,0.2641855776309967,0.5853822827339172,-1.1683703660964966,11.990161895751953
1713722598749297883,0.06178533658385277,0.030892668291926384,0.29933929443359375,-2.008735179901123,-3.533841609954834,9.792284965515137
1713722598758297883,0.09161274135112762,0.002130528911948204,0.3376888334751129,-1.2102689743041992,-2.1954829692840576,9.038111686706543
1713722598768297883,0.15233281254768372,0.015978965908288956,0.30360037088394165,0.2537853717803955,0.5961562395095825,9.137470245361328
1713722598778297883,0.08309062570333481,0.03941478580236435,0.3153182864189148,-0.25019407272338867,1.6531962156295776,9.295488357543945
1713722598787297883,-0.017044231295585632,0.020240023732185364,0.3163835406303406,-0.8547300100326538,2.2637176513671875,10.308235168457031
1713722598797297883,-0.10546118021011353,-0.013848437927663326,0.3238403797149658,-0.9852139949798584,1.5981296300888062,9.921571731567383
1713722598807297883,-0.11504855751991272,-0.03195793181657791,0.33129724860191345,-0.9600748419761658,-0.11611878126859665,9.004592895507812
1713722598816297883,-0.0788295716047287,-0.047936901450157166,0.32277512550354004,-1.07379949092865,-1.5981296300888062,8.742427825927734
1713722598826297883,-0.06391586363315582,-0.04367584362626076,0.3387540876865387,-0.32202011346817017,-1.1755529642105103,10.573991775512695
1713722598835297883,-0.03621898964047432,-0.049002163112163544,0.29933929443359375,0.0035913025494664907,-1.213860273361206,12.774263381958008
1713722598845297883,-0.022370552644133568,-0.09374327212572098,0.3153182864189148,-0.5494692921638489,-3.355473518371582,12.374431610107422
1713722598854297883,0.017044231295585632,-0.09693906456232071,0.3206445872783661,1.2114660739898682,-3.884592294692993,10.234015464782715
1713722598864297883,0.11398329585790634,-0.009587380103766918,0.28442561626434326,3.494337320327759,-2.3930046558380127,8.508993148803711
1713722598874297883,0.1810949593782425,0.13315805792808533,0.24820661544799805,2.7222073078155518,-0.6356605291366577,8.489839553833008
1713722598883297883,0.1906823366880417,0.18322548270225525,0.222640261054039,-0.10295066982507706,1.2222399711608887,8.972270965576172
1713722598893297883,0.09054747968912125,0.11504855751991272,0.24927188456058502,-2.4025814533233643,2.760514497756958,9.891644477844238
1713722598902297883,-0.05645901337265968,-0.00532632227987051,0.2556634545326233,-2.919728994369507,3.1088707447052,10.807426452636719
1713722598912297883,-0.15659387409687042,-0.10865697264671326,0.2631203234195709,-1.8626888990402222,1.6879122257232666,9.769539833068848
1713722598922297883,-0.18322548270225525,-0.14487595856189728,0.2684466242790222,-0.20350714027881622,-0.3734954595565796,8.993818283081055
1713722598931297883,-0.11717908829450607,-0.12676647305488586,0.23968449234962463,0.7841010689735413,-2.342726230621338,9.423577308654785
1713722598941297883,-0.06178533658385277,-0.08415588736534119,0.22050973773002625,1.5969325304031372,-2.9867665767669678,10.795454978942871
1713722598951297883,-0.003195793367922306,-0.03834952041506767,0.1949433982372284,2.4576480388641357,-2.4672248363494873,11.924321174621582
1713722598960297883,0.04687163606286049,0.009587380103766918,0.15978966653347015,2.3558943271636963,-2.604891300201416,11.14620590209961
1713722598970297883,0.08628641813993454,0.05645901337265968,0.15233281254768372,1.7322049140930176,-2.3259668350219727,9.896432876586914
1713722598979297883,0.1299622654914856,0.1022653877735138,0.13102751970291138,0.9588777422904968,-0.8858546018600464,9.211690902709961
1713722598989297883,0.12889699637889862,0.10439591109752655,0.11078750342130661,-0.44173020124435425,0.5973533391952515,9.402029991149902
1713722598998297883,0.07669904083013535,0.044741105288267136,0.12144014239311218,-1.764526605606079,1.4891934394836426,9.783905029296875
1713722599008297883,-0.012783173471689224,-0.044741105288267136,0.12250541150569916,-1.8926163911819458,1.667561411857605,9.889249801635742
1713722599018297883,-0.08096009492874146,-0.11185276508331299,0.12676647305488586,-0.711077868938446,1.0450689792633057,9.660603523254395
1713722599027297883,-0.10013485699892044,-0.11398329585790634,0.12144014239311218,1.1180921792984009,-0.05027823522686958,9.075221061706543
1713722599037297883,-0.08309062570333481,-0.044741105288267136,0.09906959533691406,2.4875755310058594,-0.8283937573432922,9.0859956741333
1713722599046297883,-0.06072007119655609,0.03941478580236435,0.07030745595693588,2.3977930545806885,-1.1276689767837524,10.678139686584473
1713722599056297883,0.012783173471689224,0.047936901450157166,0.027696875855326653,-0.14844051003456116,-2.8191723823547363,12.18768310546875
1713722599065297883,0.041545312851667404,-0.007456851191818714,0.07243797928094864,-2.0171148777008057,-4.1826701164245605,11.827356338500977
1713722599075297883,0.08096009492874146,-0.04687163606286049,0.07669904083013535,-0.02992752008140087,-2.1954829692840576,10.711658477783203
1713722599085297883,0.1438107043504715,-0.02130528911948204,0.034088462591171265,1.9345149993896484,-0.30526071786880493,8.700529098510742
1713722599094297883,0.14061491191387177,0.04580637067556381,0.01810949482023716,1.6759411096572876,0.5638344883918762,7.594407558441162
1713722599104297883,0.08309062570333481,0.08735168725252151,0.001065264455974102,0.4728548228740692,2.1308395862579346,8.923189163208008
1713722599113297883,-0.020240023732185364,0.06924218684434891,0.002130528911948204,-0.9684545993804932,2.9747955799102783,10.346542358398438
1713722599123297883,-0.14594122767448425,0.011717909015715122,0.022370552644133568,-1.701080322265625,2.2218191623687744,10.954669952392578
1713722599133297883,-0.13528858125209808,-0.09161274135112762,0.01810949482023716,-2.873042106628418,-1.544260025024414,10.60152530670166
1713722599142297883,-0.09587380290031433,-0.1672465205192566,0.07137271761894226,-2.0841524600982666,-4.387374401092529,9.125499725341797
1713722599152297883,0.027696875855326653,-0.13848437368869781,0.06391586363315582,1.9979612827301025,-2.4372973442077637,9.135076522827148
1713722599161297883,0.09693906456232071,-0.009587380103766918,0.01810949482023716,3.974374771118164,-0.1304839849472046,10.055646896362305
1713722599172297883,0.07030745595693588,0.12250541150569916,-0.007456851191818714,3.027467966079712,0.7697358131408691,10.475829124450684
1713722599181297883,-0.03195793181657791,0.18748654425144196,-0.003195793367922306,0.8978255987167358,1.136048674583435,11.84531307220459
1713722599190297883,-0.00532632227987051,0.07776430249214172,-0.03621898964047432,-3.6116530895233154,-2.0614075660705566,11.554417610168457
1713722599200297883,0.015978965908288956,-0.058589544147253036,0.07456851005554199,-4.918887138366699,-4.9356465339660645,9.003395080566406
1713722599209297883,0.11824434995651245,-0.10972223430871964,0.04580637067556381,-0.652419924736023,-1.8351556062698364,8.881291389465332
1713722599219297883,0.18216021358966827,-0.07456851005554199,0.023435818031430244,2.0661959648132324,1.5705963373184204,8.916007041931152
1713722599229297883,0.11185276508331299,0.001065264455974102,-0.02130528911948204,1.7968482971191406,2.6396074295043945,8.702922821044922
1713722599238297883,-0.049002163112163544,0.044741105288267136,0.00532632227987051,0.7661445140838623,3.3435025215148926,10.917559623718262
1713722599248297883,-0.17896442115306854,0.0511326938867569,-0.003195793367922306,0.16400282084941864,2.4001872539520264,11.496956825256348
1713722599258297883,-0.20666129887104034,0.02556634694337845,0.013848437927663326,-1.624465823173523,-1.260547161102295,11.112687110900879
1713722599267297883,-0.06072007119655609,-0.07989483326673508,-0.002130528911948204,-3.6379895210266113,-6.167463302612305,8.689754486083984
1713722599277297883,0.030892668291926384,-0.09693906456232071,0.11291802674531937,-0.27892449498176575,-4.45441198348999,8.762778282165527
1713722599286297883,0.19707392156124115,-0.041545312851667404,-0.012783173471689224,3.1651346683502197,0.06703764945268631,9.907206535339355
1713722599296297883,0.09800432622432709,0.0649811327457428,0.02556634694337845,2.494758129119873,1.5514426231384277,10.472237586975098
1713722599305297883,-0.03621898964047432,0.12463594228029251,-0.01810949482023716,1.1563993692398071,2.519897222518921,12.393585205078125
1713722599315297883,-0.11824434995651245,0.09480853378772736,-0.020240023732185364,-1.6771382093429565,0.48961424827575684,12.191274642944336
1713722599325297883,-0.026631610468029976,-0.03621898964047432,0.00532632227987051,-4.006696701049805,-4.1611223220825195,8.765172004699707
1713722599333345090,0.006391586735844612,-0.09374327212572098,0.0649811327457428,-1.6172832250595093,-3.7038300037384033,7.644685745239258
1713722599343345090,0.1672465205192566,-0.07563377171754837,0.012783173471689224,1.7130513191223145,-0.017956512048840523,8.542511940002441
1713722599352345090,0.07456851005554199,0.014913702383637428,0.008522115647792816,2.2038626670837402,1.8136078119277954,9.770736694335938
1713722599362345090,-0.02876213937997818,0.08309062570333481,0.003195793367922306,1.5957354307174683,2.894589900970459,12.142193794250488
1713722599372345090,-0.13848437368869781,0.10439591109752655,-0.01065264455974102,0.20350714027881622,1.179144263267517,11.704054832458496
1713722599381345090,-0.044741105288267136,0.004261057823896408,-0.013848437927663326,-3.4751837253570557,-3.861847162246704,9.36013126373291
1713722599391345090,-0.012783173471689224,-0.08202536404132843,0.0788295716047287,-3.3614590167999268,-4.918887138366699,7.9858598709106445
1713722599400345090,0.16618125140666962,-0.09800432622432709,0.027696875855326653,0.8271966576576233,-0.7661445140838623,8.348581314086914
1713722599410345090,0.10546118021011353,-0.015978965908288956,0.023435818031430244,2.233790159225464,2.182314872741699,10.244789123535156
1713722599420345090,0.009587380103766918,0.0649811327457428,-0.014913702383637428,1.8698714971542358,3.2776620388031006,11.923124313354492
1713722599429345090,-0.15020228922367096,0.10439591109752655,-0.002130528911948204,0.5626373887062073,2.006340980529785,11.32577133178711
1713722599439345090,-0.09374327212572098,-0.001065264455974102,-0.03941478580236435,-2.9987375736236572,-3.138798475265503,10.109516143798828
1713722599448345090,-0.03302319720387459,-0.10439591109752655,0.0788295716047287,-3.533841609954834,-6.136338710784912,8.32104778289795
1713722599458345090,0.14168016612529755,-0.11078750342130661,0.041545312851667404,0.9828197956085205,-2.2385785579681396,8.935160636901855
1713722599468345090,0.18322548270225525,-0.022370552644133568,0.00532632227987051,2.7545289993286133,1.278503656387329,9.727641105651855
1713722599477345090,0.09906959533691406,0.06391586363315582,-0.00532632227987051,1.9357120990753174,2.5522189140319824,10.538078308105469
1713722599487345090,-0.05752427875995636,0.11504855751991272,0.01065264455974102,1.0462660789489746,2.808398485183716,11.809399604797363
1713722599496345090,-0.17789916694164276,0.10972223430871964,-0.008522115647792816,-0.12689268589019775,1.182735562324524,11.796231269836426
1713722599506345090,-0.07137271761894226,0.008522115647792816,-0.011717909015715122,-3.247734546661377,-3.8774096965789795,8.5903959274292
1713722599516345090,-0.03195793181657791,-0.06285060197114944,0.08096009492874146,-2.9867665767669678,-5.106832027435303,7.6087727546691895
1713722599525345090,0.15020228922367096,-0.058589544147253036,0.023435818031430244,0.9181763529777527,-0.9888052940368652,8.698134422302246
1713722599535345090,0.08096009492874146,0.02130528911948204,0.02876213937997818,2.0661959648132324,2.079364061355591,10.85291576385498
1713722599544345090,-0.004261057823896408,0.08309062570333481,-0.014913702383637428,1.5370774269104004,2.956839084625244,12.575544357299805
1713722599554345090,-0.15020228922367096,0.09587380290031433,0.008522115647792816,-0.11252747476100922,0.9504980444908142,12.328941345214844
1713722599564345090,-0.03302319720387459,-0.02556634694337845,-0.03621898964047432,-3.7648820877075195,-4.821922302246094,10.193313598632812
1713722599574345090,0.002130528911948204,-0.10865697264671326,0.10972223430871964,-2.934094190597534,-6.227318286895752,7.987056732177734
1713722599583345090,0.21944446861743927,-0.09693906456232071,0.007456851191818714,1.6962919235229492,-1.6112977266311646,8.591592788696289
1713722599592345090,0.20133498311042786,0.009587380103766918,0.01065264455974102,2.586934804916382,1.4688427448272705,9.29309368133545
1713722599602345090,0.12357067316770554,0.07776430249214172,-0.020240023732185364,1.6615759134292603,3.3207576274871826,10.24119758605957
1713722599612345090,-0.04367584362626076,0.10972223430871964,0.007456851191818714,0.49320554733276367,3.580528497695923,10.679336547851562
1713722599621345090,-0.18642127513885498,0.09800432622432709,0.003195793367922306,-0.304063618183136,2.3702597618103027,10.700883865356445
1713722599631345090,-0.15659387409687042,0.037284255027770996,-0.00532632227987051,-2.5043349266052246,-1.3287819623947144,9.343372344970703
1713722599640345090,-0.06285060197114944,-0.06072007119655609,0.03834952041506767,-3.4823663234710693,-4.746504783630371,8.155847549438477
1713722599650345090,0.04048004746437073,-0.07989483326673508,0.06178533658385277,-0.23942016065120697,-2.5342624187469482,9.340977668762207
1713722599659345090,0.08202536404132843,-0.027696875855326653,0.002130528911948204,2.050633668899536,0.7829039692878723,11.741165161132812
1713722599669345090,0.00532632227987051,0.041545312851667404,0.0,1.8303672075271606,0.7960720658302307,11.841721534729004
1713722599679345090,-0.08415588736534119,0.058589544147253036,-0.019174760207533836,-0.05027823522686958,-0.7625532150268555,12.768277168273926
1713722599688345090,0.04367584362626076,-0.020240023732185364,-0.03621898964047432,-3.204638957977295,-4.9799394607543945,10.213664054870605
1713722599698345090,0.07989483326673508,-0.06604639440774918,0.08628641813993454,-1.3850456476211548,-4.490325450897217,8.431180953979492
1713722599708345090,0.2727077007293701,-0.04580637067556381,-0.029827404767274857,2.055422067642212,-0.42018237709999084,8.018181800842285
1713722599717345090,0.185356006026268,0.04261057823896408,0.01810949482023716,1.7956511974334717,1.9500772953033447,8.259995460510254
1713722599726345090,0.07669904083013535,0.08096009492874146,-0.04580637067556381,0.7589619159698486,4.167108058929443,10.96544361114502
1713722599736345090,-0.09374327212572098,0.0788295716047287,0.008522115647792816,-0.4489127993583679,3.846284866333008,10.777499198913574
1713722599746345090,-0.23009711503982544,0.041545312851667404,-0.004261057823896408,-1.158793568611145,1.7776947021484375,11.186906814575195
1713722599755345090,-0.11824434995651245,-0.06604639440774918,-0.007456851191818714,-3.4117374420166016,-3.337517023086548,8.718484878540039
1713722599765345090,-0.0788295716047287,-0.12889699637889862,0.08202536404132843,-2.3690624237060547,-5.062539577484131,7.9858598709106445
1713722599775345090,0.09161274135112762,-0.09800432622432709,0.01065264455974102,1.9141641855239868,-1.5753847360610962,9.695319175720215
1713722599784345090,0.05645901337265968,0.012783173471689224,0.017044231295585632,3.043030261993408,0.8200140595436096,11.653776168823242
1713722599794345090,0.014913702383637428,0.09906959533691406,-0.04261057823896408,2.191891670227051,1.1432312726974487,12.338518142700195
1713722599803345090,-0.006391586735844612,0.10013485699892044,-0.024501081556081772,-1.0259153842926025,-1.3539210557937622,10.96544361114502
1713722599813345090,0.05752427875995636,-0.001065264455974102,-0.014913702383637428,-3.488351821899414,-4.11443567276001,9.149441719055176
1713722599823345090,0.11930961906909943,-0.06285060197114944,0.058589544147253036,-1.380257248878479,-2.0003554821014404,8.604761123657227
1713722599833345090,0.18855179846286774,-0.052197955548763275,-0.01065264455974102,1.0654197931289673,1.357512354850769,9.216479301452637
1713722599842345090,0.10120011866092682,0.001065264455974102,0.002130528911948204,1.303642749786377,2.31758713722229,9.001001358032227
1713722599851345090,-0.05752427875995636,0.04048004746437073,-0.004261057823896408,0.95528644323349,2.9987375736236572,11.100715637207031
1713722599861345090,-0.1715075671672821,0.05645901337265968,-0.026631610468029976,0.33279404044151306,1.8806453943252563,11.261127471923828
1713722599871345090,-0.10546118021011353,-0.006391586735844612,-0.015978965908288956,-2.345120429992676,-3.005920171737671,9.354146003723145
1713722599880345090,-0.04048004746437073,-0.0884169489145279,0.03302319720387459,-2.980781078338623,-5.4659624099731445,8.516175270080566
1713722599890345090,0.11824434995651245,-0.08735168725252151,0.047936901450157166,0.7314286231994629,-1.9237409830093384,9.343372344970703
1713722599899345090,0.12357067316770554,-0.002130528911948204,-0.007456851191818714,2.6839001178741455,1.3850456476211548,11.330559730529785
1713722599909345090,0.06178533658385277,0.08522115647792816,-0.019174760207533836,1.987187385559082,1.946485996246338,11.468225479125977
1713722599919345090,-0.08202536404132843,0.1257012039422989,-0.011717909015715122,0.4381389021873474,1.0821791887283325,11.432312965393066
1713722599928345090,-0.012783173471689224,0.027696875855326653,-0.055393751710653305,-3.117250442504883,-2.7904419898986816,10.107122421264648
1713722599938345090,0.013848437927663326,-0.06285060197114944,0.07350324839353561,-3.5673604011535645,-4.616020679473877,8.14148235321045
1713722599947345090,0.16511598229408264,-0.09161274135112762,0.00532632227987051,0.18794482946395874,-1.1252747774124146,8.329427719116211
1713722599957345090,0.13528858125209808,-0.03195793181657791,0.02130528911948204,1.9009960889816284,2.030282974243164,9.746794700622559
1713722599967345090,0.055393751710653305,0.03302319720387459,-0.024501081556081772,1.744175910949707,3.271676540374756,11.010933876037598
1713722599976345090,-0.10120011866092682,0.08415588736534119,0.006391586735844612,0.9253589510917664,2.603694200515747,11.058817863464355
1713722599986345090,-0.16511598229408264,0.06391586363315582,-0.029827404767274857,-1.3682862520217896,-0.07422025501728058,11.988965034484863
1713722599995345090,-0.029827404767274857,-0.052197955548763275,0.007456851191818714,-4.135983467102051,-5.12000036239624,9.064447402954102
1713722600005345090,0.024501081556081772,-0.10439591109752655,0.08522115647792816,-1.4496891498565674,-4.325125217437744,8.08282470703125
1713722600015345090,0.1949433982372284,-0.07456851005554199,-0.003195793367922306,2.4863784313201904,-0.11611878126859665,8.99621295928955
1713722600024345090,0.09800432622432709,0.02876213937997818,0.014913702383637428,2.565387010574341,1.7298107147216797,10.053253173828125
1713722600034345090,-0.02130528911948204,0.10439591109752655,-0.026631610468029976,1.5658079385757446,3.002328872680664,12.67250919342041
1713722600043345090,-0.1342233121395111,0.10546118021011353,-0.02130528911948204,-0.7936778664588928,1.1420341730117798,12.272677421569824
1713722600054345090,-0.034088462591171265,-0.026631610468029976,-0.023435818031430244,-3.994725465774536,-4.253299236297607,9.288305282592773
1713722600062345090,-0.001065264455974102,-0.10439591109752655,0.0788295716047287,-2.7461493015289307,-4.9787421226501465,7.680598735809326
1713722600072345090,0.1949433982372284,-0.10759171098470688,-0.002130528911948204,1.303642749786377,-0.7182605266571045,8.134300231933594
1713722600082345090,0.12783172726631165,-0.01810949482023716,0.008522115647792816,2.404975652694702,2.115277051925659,9.929951667785645
1713722600092345090,0.049002163112163544,0.055393751710653305,-0.029827404767274857,1.8327614068984985,3.3854012489318848,11.456254959106445
1713722600101345090,-0.10333064943552017,0.09693906456232071,0.002130528911948204,0.751779317855835,2.5761609077453613,10.777499198913574
1713722600111345090,-0.15446333587169647,0.08096009492874146,-0.012783173471689224,-1.4089876413345337,0.1388636976480484,11.683704376220703
1713722600120345090,-0.030892668291926384,-0.027696875855326653,-0.00532632227987051,-3.977966070175171,-4.357447147369385,8.622716903686523
1713722600130345090,0.007456851191818714,-0.08735168725252151,0.08522115647792816,-1.7968482971191406,-3.5841197967529297,7.807491779327393
1713722600139345090,0.14061491191387177,-0.07989483326673508,0.001065264455974102,1.7549498081207275,0.1604115068912506,9.485827445983887
1713722600150345090,0.034088462591171265,0.009587380103766918,0.023435818031430244,2.1116857528686523,1.646013617515564,10.890026092529297
1713722600158345090,-0.06604639440774918,0.0788295716047287,-0.004261057823896408,1.423352837562561,2.099714756011963,12.758700370788574
1713722600168345090,-0.08522115647792816,0.06072007119655609,-0.020240023732185364,-1.5897499322891235,-1.0223240852355957,11.385625839233398
1713722600178345090,0.011717909015715122,-0.052197955548763275,0.023435818031430244,-4.1156325340271,-5.2684407234191895,8.480262756347656
1713722600188345090,0.10013485699892044,-0.10333064943552017,0.07563377171754837,-1.0211269855499268,-3.156754970550537,8.268375396728516
1713722600197345090,0.22796659171581268,-0.07030745595693588,0.004261057823896408,2.22660756111145,1.2006921768188477,8.942342758178711
1713722600206345090,0.13741911947727203,0.00532632227987051,0.0,1.8411411046981812,2.4396915435791016,9.579200744628906
1713722600216345090,-0.017044231295585632,0.05752427875995636,0.015978965908288956,0.9792284965515137,3.3243489265441895,11.82496166229248
1713722600226345090,-0.16085493564605713,0.07456851005554199,0.009587380103766918,0.365115761756897,2.341529130935669,11.141417503356934
1713722600236345090,-0.19174760580062866,0.05965480953454971,0.026631610468029976,-1.2330138683319092,-0.8140285611152649,10.606313705444336
1713722600245345090,-0.044741105288267136,-0.04048004746437073,-0.001065264455974102,-3.533841609954834,-5.056553840637207,7.987056732177734
1713722600254345090,0.023435818031430244,-0.07350324839353561,0.10333064943552017,-1.2485761642456055,-3.550601005554199,8.301894187927246
1713722600264345090,0.148071750998497,-0.05752427875995636,-0.003195793367922306,2.055422067642212,0.5650315880775452,10.36569595336914
1713722600274345090,0.044741105288267136,0.024501081556081772,0.03195793181657791,2.0219032764434814,1.6196774244308472,11.218031883239746
1713722600284345090,-0.07456851005554199,0.0788295716047287,-0.004261057823896408,1.2713210582733154,1.8100165128707886,12.628216743469238
1713722600293345090,-0.06178533658385277,0.0511326938867569,-0.014913702383637428,-1.5873557329177856,-1.3000514507293701,10.51174259185791
1713722600302345090,0.011717909015715122,-0.03941478580236435,0.03621898964047432,-3.33512282371521,-4.6255974769592285,7.660248279571533
1713722600312345090,0.11824434995651245,-0.07030745595693588,0.05752427875995636,-0.629675030708313,-2.2206220626831055,8.20492935180664
1713722600322345090,0.1757686287164688,-0.034088462591171265,0.02556634694337845,1.5682021379470825,1.6280571222305298,10.160991668701172
1713722600331345090,0.08522115647792816,0.03195793181657791,0.019174760207533836,1.2856862545013428,2.8119897842407227,10.557231903076172
1713722600341345090,-0.08202536404132843,0.07776430249214172,0.04367584362626076,0.4189852774143219,2.8874073028564453,11.615468978881836
1713722600351345090,-0.16618125140666962,0.06391586363315582,0.017044231295585632,-1.4724340438842773,0.6643909811973572,12.200851440429688
1713722600360345090,-0.04687163606286049,-0.047936901450157166,0.05752427875995636,-4.028244495391846,-4.4723687171936035,8.501810073852539
1713722600370345090,-0.01065264455974102,-0.10439591109752655,0.11824434995651245,-2.0410568714141846,-4.343081951141357,7.396885871887207
1713722600379345090,0.15872439742088318,-0.08522115647792816,0.05965480953454971,1.722628116607666,-0.2190694510936737,8.969876289367676
1713722600389345090,0.06604639440774918,0.011717909015715122,0.06711165606975555,2.2218191623687744,1.9357120990753174,10.934318542480469
1713722600398345090,-0.022370552644133568,0.08415588736534119,0.04261057823896408,1.4449007511138916,2.6408045291900635,12.716801643371582
1713722600408345090,-0.10865697264671326,0.07776430249214172,0.044741105288267136,-1.0606313943862915,0.21188685297966003,12.176909446716309
1713722600418345090,-0.007456851191818714,-0.04261057823896408,0.05645901337265968,-4.066551685333252,-4.551377296447754,9.139864921569824
1713722600427345090,0.03195793181657791,-0.11078750342130661,0.14913702011108398,-1.8160020112991333,-4.171896457672119,7.570465564727783
1713722600437345090,0.20985709130764008,-0.08522115647792816,0.06604639440774918,2.070984363555908,-0.14365209639072418,8.508993148803711
1713722600446345090,0.1395496428012848,0.020240023732185364,0.07563377171754837,2.232593059539795,1.8830395936965942,9.414000511169434
1713722600457345090,0.024501081556081772,0.092678003013134,0.06711165606975555,1.2282254695892334,3.5039141178131104,11.896787643432617
1713722600465345090,-0.12783172726631165,0.10333064943552017,0.07243797928094864,-0.08738835901021957,2.828749179840088,11.356895446777344
1713722600475345090,-0.1672465205192566,0.04048004746437073,0.0788295716047287,-2.655169725418091,-0.5422866940498352,10.563218116760254
1713722600485345090,-0.05645901337265968,-0.08948221057653427,0.09693906456232071,-4.359841346740723,-5.195417404174805,8.456319808959961
1713722600494345090,0.026631610468029976,-0.12144014239311218,0.16937704384326935,-0.7134720683097839,-3.709815502166748,8.828619003295898
1713722600504345090,0.1619201898574829,-0.07030745595693588,0.07669904083013535,2.8203694820404053,0.1735796183347702,10.097545623779297
1713722600514345090,0.07776430249214172,0.04048004746437073,0.09587380290031433,2.7222073078155518,1.2054805755615234,10.648211479187012
1713722600523345090,-0.024501081556081772,0.11398329585790634,0.07243797928094864,1.5969325304031372,1.8171991109848022,12.030863761901855
1713722600533345090,-0.05965480953454971,0.10120011866092682,0.05006742849946022,-1.1061211824417114,-0.014365210197865963,11.133037567138672
1713722600543345090,0.008522115647792816,0.002130528911948204,0.09054747968912125,-3.621230125427246,-3.268085241317749,8.3892822265625
1713722600552345090,0.03834952041506767,-0.06391586363315582,0.12357067316770554,-2.013523578643799,-2.213439464569092,8.056488990783691
1713722600561345090,0.12783172726631165,-0.07243797928094864,0.10013485699892044,0.7541735172271729,0.8523358106613159,9.275136947631836
1713722600571345090,0.05432848632335663,-0.02130528911948204,0.09693906456232071,1.4173673391342163,1.942894697189331,9.72404956817627
1713722600581345090,-0.047936901450157166,0.037284255027770996,0.09906959533691406,1.337161660194397,2.5007436275482178,11.14500904083252
1713722600591345090,-0.14168016612529755,0.07137271761894226,0.07989483326673508,0.6356605291366577,1.4281412363052368,10.821791648864746
1713722600600345090,-0.07669904083013535,0.015978965908288956,0.08202536404132843,-2.0386626720428467,-2.6827030181884766,9.801861763000488
1713722600610345090,-0.02130528911948204,-0.05965480953454971,0.12889699637889862,-3.0753519535064697,-4.916492938995361,9.069235801696777
1713722600619345090,0.09693906456232071,-0.0788295716047287,0.14061491191387177,0.0071826050989329815,-1.6819266080856323,9.940725326538086
1713722600629345090,0.10865697264671326,-0.02130528911948204,0.09480853378772736,2.1332337856292725,1.136048674583435,11.292252540588379
1713722600638345090,0.0511326938867569,0.05006742849946022,0.08309062570333481,1.9764134883880615,1.334767460823059,10.773907661437988
1713722600648345090,-0.047936901450157166,0.09587380290031433,0.08309062570333481,0.93254154920578,0.7924807667732239,10.24119758605957
1713722600658345090,-0.01065264455974102,0.05965480953454971,0.049002163112163544,-1.5945383310317993,-1.3742717504501343,9.54209041595459
1713722600667345090,0.019174760207533836,-0.014913702383637428,0.11504855751991272,-2.847902774810791,-2.822763681411743,8.562862396240234
1713722600677345090,0.0884169489145279,-0.06711165606975555,0.09906959533691406,-1.0438718795776367,-0.6871358752250671,9.299078941345215
1713722600686345090,0.07989483326673508,-0.06178533658385277,0.09587380290031433,0.5434837937355042,1.3982137441635132,10.217255592346191
1713722600696345090,0.013848437927663326,-0.030892668291926384,0.07456851005554199,1.2413935661315918,1.7525556087493896,10.198101997375488
1713722600705345090,-0.08522115647792816,0.017044231295585632,0.07243797928094864,1.5322890281677246,1.357512354850769,10.500968933105469
1713722600716345090,-0.12144014239311218,0.04048004746437073,0.04687163606286049,0.9133879542350769,-0.04668693244457245,11.186906814575195
1713722600725345090,-0.023435818031430244,0.0,0.034088462591171265,-1.478419542312622,-3.4596214294433594,9.804255485534668
1713722600735345090,0.004261057823896408,-0.04261057823896408,0.09587380290031433,-1.3862427473068237,-3.8558616638183594,9.524134635925293
1713722600744345090,0.10759171098470688,-0.052197955548763275,0.049002163112163544,1.4065934419631958,-0.9493009448051453,10.181342124938965
1713722600753345090,0.07563377171754837,0.01065264455974102,0.052197955548763275,2.3762452602386475,0.6404489278793335,10.494982719421387
1713722600763345090,0.034088462591171265,0.07669904083013535,0.00532632227987051,1.8638859987258911,1.0486602783203125,10.5715970993042
1713722600773345090,-0.014913702383637428,0.10546118021011353,0.013848437927663326,0.49320554733276367,0.44651859998703003,9.743204116821289
1713722600782345090,0.012783173471689224,0.049002163112163544,-0.012783173471689224,-1.7956511974334717,-1.181538462638855,9.248801231384277
1713722600792345090,0.008522115647792816,-0.017044231295585632,0.04261057823896408,-2.383427858352661,-1.3263877630233765,9.510966300964355
1713722600802345090,0.05432848632335663,-0.06285060197114944,0.027696875855326653,-0.6607996821403503,0.1951274424791336,9.774328231811523
1713722600811345090,0.015978965908288956,-0.04580637067556381,0.03302319720387459,0.7661445140838623,0.9385270476341248,9.77672290802002
1713722600821345090,-0.020240023732185364,0.003195793367922306,0.012783173471689224,1.4891934394836426,1.0402805805206299,10.183736801147461
1713722600830345090,-0.06072007119655609,0.055393751710653305,0.009587380103766918,1.280897855758667,0.507570743560791,10.020931243896484
1713722600840345090,-0.04580637067556381,0.06817692518234253,0.001065264455974102,-0.3974374830722809,-0.8475474119186401,10.277111053466797
1713722600850345090,0.01065264455974102,0.020240023732185364,0.008522115647792816,-2.3702597618103027,-2.734178304672241,10.261548042297363
1713722600859345090,0.029827404767274857,-0.02130528911948204,0.058589544147253036,-1.4879963397979736,-1.8734627962112427,10.826580047607422
1713722600869345090,0.07030745595693588,-0.03621898964047432,0.01810949482023716,0.40222588181495667,-0.12210428714752197,10.69489860534668
1713722600878345090,0.026631610468029976,-0.007456851191818714,0.024501081556081772,0.9014168977737427,0.010773907415568829,10.053253173828125
1713722600888345090,0.008522115647792816,0.024501081556081772,0.004261057823896408,0.9313444495201111,-0.013168109580874443,10.013748168945312
1713722600898345090,0.017044231295585632,0.04580637067556381,0.00532632227987051,0.5327098965644836,-0.36750996112823486,9.11233139038086
1713722600907345090,0.027696875855326653,0.05006742849946022,-0.001065264455974102,-0.29807811975479126,-0.3363853394985199,9.091980934143066
1713722600917345090,0.024501081556081772,0.03195793181657791,0.004261057823896408,-1.0570399761199951,0.2908954918384552,9.786299705505371
1713722600926345090,-0.001065264455974102,-0.007456851191818714,0.015978965908288956,-1.2114660739898682,0.7194576263427734,10.078392028808594
1713722600936345090,-0.034088462591171265,-0.03941478580236435,0.019174760207533836,-0.7637503147125244,0.5063736438751221,10.011354446411133
1713722600946345090,-0.055393751710653305,-0.047936901450157166,0.019174760207533836,0.035913024097681046,-0.019153613597154617,9.967061042785645
1713722600955345090,-0.047936901450157166,-0.03195793181657791,0.014913702383637428,0.6416460275650024,-0.7003039717674255,10.092757225036621
1713722600964345090,-0.009587380103766918,0.001065264455974102,0.011717909015715122,0.5602431893348694,-1.478419542312622,10.307038307189941
1713722600974345090,0.027696875855326653,0.03621898964047432,0.011717909015715122,0.304063618183136,-1.43532395362854,10.255562782287598
1713722600984345090,0.04580637067556381,0.0511326938867569,0.007456851191818714,0.008379706181585789,-0.6452373266220093,10.362104415893555
1713722600994345090,0.04687163606286049,0.03195793181657791,0.0,-1.070208191871643,-0.5303156971931458,10.72841739654541
1713722601003345090,0.023435818031430244,-0.01810949482023716,0.01810949482023716,-1.4832079410552979,-0.5770025849342346,10.429141998291016
1713722601013345090,0.020240023732185364,-0.052197955548763275,0.029827404767274857,-0.3100491166114807,-0.23822306096553802,9.806650161743164
1713722601022345090,0.023435818031430244,-0.03621898964047432,0.022370552644133568,0.9097966551780701,-0.11252747476100922,9.284713745117188
1713722601032345090,0.03302319720387459,0.014913702383637428,0.011717909015715122,1.304839849472046,0.016759412363171577,9.05247688293457
1713722601041345090,0.017044231295585632,0.06072007119655609,0.004261057823896408,0.8248024582862854,0.4692635238170624,9.593565940856934
1713722601051345090,-0.011717909015715122,0.07137271761894226,0.001065264455974102,-0.21547815203666687,0.811634361743927,10.139444351196289
1713722601061345090,-0.02556634694337845,0.037284255027770996,0.002130528911948204,-1.5849615335464478,0.25498247146606445,10.107122421264648
1713722601070345090,-0.034088462591171265,-0.029827404767274857,0.017044231295585632,-2.209848165512085,-0.7493851184844971,9.96825885772705
1713722601080345090,-0.034088462591171265,-0.07243797928094864,0.03834952041506767,-0.8870517015457153,-0.6165069341659546,10.041281700134277
1713722601090345090,-0.015978965908288956,-0.06072007119655609,0.022370552644133568,0.8667010068893433,-0.1999158412218094,10.105925559997559
1713722601099345090,-0.013848437927663326,-0.002130528911948204,0.02130528911948204,1.5957354307174683,-0.4141968786716461,10.035296440124512
1713722601109345090,-0.020240023732185364,0.06072007119655609,0.00532632227987051,1.159990668296814,-0.6045359373092651,10.96424674987793
1713722601119345090,0.03834952041506767,0.0511326938867569,-0.017044231295585632,-1.1097124814987183,-2.1535844802856445,10.931924819946289
1713722601128345090,0.034088462591171265,-0.008522115647792816,0.03621898964047432,-1.9393033981323242,-2.582146406173706,10.216058731079102
1713722601138345090,0.08628641813993454,-0.047936901450157166,0.02130528911948204,0.02753331884741783,-0.7457938194274902,9.858125686645508
1713722601147345090,0.08202536404132843,-0.023435818031430244,0.01065264455974102,1.334767460823059,0.46806642413139343,9.386467933654785
1713722601157345090,0.07137271761894226,0.02556634694337845,-0.012783173471689224,1.3275848627090454,1.0019733905792236,9.060855865478516
1713722601166345090,0.019174760207533836,0.06285060197114944,-0.01810949482023716,0.6572083830833435,1.422155737876892,9.160215377807617
1713722601176345090,-0.04261057823896408,0.05752427875995636,-0.03195793181657791,-0.24779987335205078,1.6160861253738403,9.763554573059082
1713722601185345090,-0.09161274135112762,0.026631610468029976,-0.02556634694337845,-0.8930371999740601,1.139639973640442,9.795876502990723
1713722601195345090,-0.10120011866092682,-0.02876213937997818,-0.030892668291926384,-1.2832920551300049,-0.2059013396501541,9.983820915222168
1713722601205345090,-0.08735168725252151,-0.07350324839353561,-0.011717909015715122,-0.894234299659729,-1.5921441316604614,10.178948402404785
1713722601214345090,-0.05432848632335663,-0.06178533658385277,-0.001065264455974102,0.8595184087753296,-1.522712230682373,10.541669845581055
1713722601224345090,-0.006391586735844612,0.006391586735844612,-0.02130528911948204,2.189497470855713,-1.1456254720687866,10.497377395629883
1713722601233345090,0.03302319720387459,0.07456851005554199,-0.04580637067556381,1.314416766166687,-1.7381904125213623,10.505757331848145
1713722601243345090,0.07350324839353561,0.07350324839353561,-0.0511326938867569,-0.9864110946655273,-2.22660756111145,10.626664161682129
1713722601252345090,0.07563377171754837,0.03302319720387459,-0.011717909015715122,-1.5286977291107178,-0.8786720037460327,10.515334129333496
1713722601262345090,0.09374327212572098,-0.004261057823896408,-0.03941478580236435,-0.7003039717674255,0.606930136680603,9.62947940826416
1713722601272345090,0.05006742849946022,-0.015978965908288956,-0.02556634694337845,-0.40701428055763245,1.0199298858642578,8.724471092224121
1713722601281345090,0.001065264455974102,-0.019174760207533836,-0.03941478580236435,-0.02992752008140087,1.50355863571167,9.175777435302734
1713722601291345090,-0.05432848632335663,-0.006391586735844612,-0.03515372797846794,0.19033902883529663,1.4987702369689941,9.518148422241211
1713722601301345090,-0.10120011866092682,0.00532632227987051,-0.03834952041506767,0.18794482946395874,0.9792284965515137,9.718064308166504
1713722601310345090,-0.11398329585790634,0.008522115647792816,-0.037284255027770996,0.015562310814857483,0.028730420395731926,10.035296440124512
1713722601320345090,-0.07243797928094864,-0.011717909015715122,-0.04048004746437073,-0.7996633648872375,-1.6759411096572876,10.022128105163574
1713722601329345090,-0.05645901337265968,-0.034088462591171265,-0.008522115647792816,-0.6320692300796509,-2.233790159225464,10.620678901672363
1713722601339345090,-0.009587380103766918,-0.013848437927663326,-0.014913702383637428,0.9888052940368652,-1.182735562324524,11.171344757080078
1713722601349345090,0.020240023732185364,0.041545312851667404,-0.037284255027770996,1.1348515748977661,-0.9085995554924011,10.632649421691895
1713722601358345090,0.05006742849946022,0.05752427875995636,-0.049002163112163544,-0.2621650695800781,-1.3694833517074585,9.726444244384766
1713722601368345090,0.05006742849946022,0.03834952041506767,-0.030892668291926384,-0.849941611289978,-0.5949591398239136,9.674968719482422
1713722601377345090,0.05006742849946022,0.002130528911948204,-0.049002163112163544,-0.7601590156555176,0.5303156971931458,9.877279281616211
1713722601387345090,-0.001065264455974102,-0.023435818031430244,-0.03515372797846794,-0.6631938815116882,0.8008604645729065,9.737217903137207
1713722601397345090,-0.04367584362626076,-0.03195793181657791,-0.04048004746437073,-0.18794482946395874,0.7457938194274902,9.895235061645508
1713722601406345090,-0.058589544147253036,-0.022370552644133568,-0.03941478580236435,0.33039984107017517,0.18555063009262085,9.493009567260742
1713722601416345090,-0.05965480953454971,-0.002130528911948204,-0.041545312851667404,0.5841851830482483,-0.31603461503982544,9.275136947631836
1713722601425345090,-0.049002163112163544,0.01810949482023716,-0.047936901450157166,0.45489832758903503,-0.40701428055763245,9.57441234588623
1713722601435345090,-0.03515372797846794,0.01810949482023716,-0.052197955548763275,-0.13407529890537262,-0.49559974670410156,10.164583206176758
1713722601445345090,-0.03515372797846794,-0.001065264455974102,-0.047936901450157166,-0.7613561153411865,-0.7529764175415039,10.927136421203613
1713722601454345090,-0.03195793181657791,-0.02556634694337845,-0.034088462591171265,-0.606930136680603,-1.015141487121582,11.083956718444824
1713722601464345090,-0.015978965908288956,-0.02130528911948204,-0.030892668291926384,0.06224924325942993,-1.2844891548156738,10.449493408203125
1713722601474345090,0.013848437927663326,0.007456851191818714,-0.03941478580236435,0.42856210470199585,-1.278503656387329,9.710882186889648
1713722601483345090,0.03621898964047432,0.02876213937997818,-0.04687163606286049,0.4034229815006256,-0.6236895322799683,9.467870712280273
1713722601493345090,0.03195793181657791,0.034088462591171265,-0.052197955548763275,-0.0035913025494664907,0.21547815203666687,9.929951667785645
1713722601502345090,-0.00532632227987051,0.024501081556081772,-0.05432848632335663,-0.5829880833625793,0.5662286877632141,10.398017883300781
1713722601512345090,-0.03621898964047432,-0.011717909015715122,-0.05006742849946022,-0.9923965930938721,0.05147533491253853,10.280701637268066
1713722601522345090,-0.041545312851667404,-0.04367584362626076,-0.02876213937997818,-0.7589619159698486,-0.8655039072036743,9.677363395690918
1713722601531345090,-0.01810949482023716,-0.03621898964047432,-0.029827404767274857,0.24779987335205078,-0.8774749040603638,9.272743225097656
1713722601540345090,0.012783173471689224,-0.007456851191818714,-0.04367584362626076,0.8882488012313843,-0.30047231912612915,9.215282440185547
1713722601550345090,0.011717909015715122,0.02130528911948204,-0.0511326938867569,0.7649474143981934,0.2753331959247589,9.546878814697266
1713722601560345090,-0.029827404767274857,0.03941478580236435,-0.055393751710653305,0.3016694188117981,0.894234299659729,10.553641319274902
1713722601570345090,-0.08415588736534119,0.029827404767274857,-0.06285060197114944,-0.36990416049957275,0.6260837316513062,11.687294960021973
1713722601579345090,-0.05752427875995636,-0.027696875855326653,-0.06072007119655609,-1.9129670858383179,-1.9728221893310547,10.861295700073242
1713722601588345090,-0.041545312851667404,-0.07243797928094864,-0.015978965908288956,-1.7705121040344238,-3.404554843902588,9.319430351257324
1713722601598345090,0.047936901450157166,-0.06285060197114944,-0.02876213937997818,0.8738836050033569,-1.5406687259674072,9.153033256530762
1713722601608345090,0.06604639440774918,-0.003195793367922306,-0.052197955548763275,2.256535053253174,0.2908954918384552,9.725247383117676
1713722601617345090,0.04261057823896408,0.07030745595693588,-0.0649811327457428,1.7812860012054443,1.1061211824417114,10.243592262268066
1713722601627345090,-0.037284255027770996,0.11185276508331299,-0.07243797928094864,0.3842693567276001,1.194706678390503,10.590750694274902
1713722601636345090,-0.05326322093605995,0.05326322093605995,-0.08309062570333481,-2.123656988143921,-0.5446808934211731,10.572794914245605
1713722601646345090,-0.03195793181657791,-0.05006742849946022,-0.022370552644133568,-3.288435935974121,-2.542642116546631,9.313444137573242
1713722601656345090,0.02556634694337845,-0.1022653877735138,-0.019174760207533836,-0.9229647517204285,-1.280897855758667,8.852560997009277
1713722601665345090,0.05965480953454971,-0.08415588736534119,-0.04367584362626076,1.5550339221954346,0.7170634269714355,9.315838813781738
1713722601675345090,0.015978965908288956,-0.013848437927663326,-0.05965480953454971,2.29484224319458,1.3479355573654175,9.828197479248047
1713722601684345090,-0.08735168725252151,0.07243797928094864,-0.07137271761894226,2.008735179901123,1.5897499322891235,11.437101364135742
1713722601694345090,-0.13848437368869781,0.09906959533691406,-0.08415588736534119,-0.0071826050989329815,-0.06823474913835526,13.09029769897461
1713722601704345090,-0.019174760207533836,0.006391586735844612,-0.07776430249214172,-3.75291109085083,-4.934449672698975,10.176553726196289
1713722601713345090,0.011717909015715122,-0.06391586363315582,0.020240023732185364,-2.5330653190612793,-4.778826713562012,8.457517623901367
1713722601723345090,0.18855179846286774,-0.08628641813993454,-0.06178533658385277,1.5682021379470825,-0.5626373887062073,8.277952194213867
1713722601732345090,0.09374327212572098,-0.01065264455974102,-0.04367584362626076,2.34033203125,1.8758569955825806,9.387664794921875
1713722601742345090,0.01065264455974102,0.058589544147253036,-0.10972223430871964,1.7633295059204102,3.2597055435180664,11.368866920471191
1713722601752345090,-0.1257012039422989,0.09800432622432709,-0.05965480953454971,0.6715735793113708,2.472013235092163,10.463858604431152
1713722601761345090,-0.185356006026268,0.07776430249214172,-0.0884169489145279,-0.910993754863739,0.35673603415489197,10.758345603942871
1713722601771345090,-0.07030745595693588,-0.012783173471689224,-0.08096009492874146,-3.4081461429595947,-3.7158010005950928,8.438364028930664
1713722601780345090,-0.03941478580236435,-0.07350324839353561,-0.002130528911948204,-2.070984363555908,-3.2800562381744385,8.189366340637207
1713722601791345090,0.08522115647792816,-0.08522115647792816,-0.07563377171754837,1.3766659498214722,0.14365209639072418,9.580397605895996
1713722601799345090,-0.009587380103766918,-0.00532632227987051,-0.047936901450157166,2.275688648223877,1.5885528326034546,11.148599624633789
1713722601809345090,-0.10333064943552017,0.06817692518234253,-0.09374327212572098,2.0159177780151367,1.8327614068984985,12.877213478088379
1713722601819345090,-0.11717908829450607,0.08415588736534119,-0.08202536404132843,-0.9672574996948242,-1.380257248878479,11.660959243774414
1713722601828488069,0.006391586735844612,-0.011717909015715122,-0.07030745595693588,-4.288015365600586,-6.141127109527588,8.853757858276367
1713722601838488069,0.0884169489145279,-0.07030745595693588,0.020240023732185364,-1.6531962156295776,-3.9193081855773926,8.757989883422852
1713722601847488069,0.23861923813819885,-0.06924218684434891,-0.07243797928094864,1.944091796875,0.9349357485771179,8.951919555664062
1713722601857488069,0.13102751970291138,-0.006391586735844612,-0.05645901337265968,1.8136078119277954,2.2242133617401123,9.197325706481934
1713722601867488069,-0.019174760207533836,0.047936901450157166,-0.06817692518234253,1.094150185585022,3.4320881366729736,11.529277801513672
1713722601877488069,-0.16298545897006989,0.07243797928094864,-0.06178533658385277,0.5554547905921936,2.6874914169311523,10.645817756652832
1713722601886488069,-0.25353294610977173,0.08735168725252151,-0.03515372797846794,0.2190694510936737,0.6572083830833435,9.545681953430176
1713722601896488069,-0.11291802674531937,0.023435818031430244,-0.1065264418721199,-2.586934804916382,-3.599682092666626,7.845798969268799
1713722601905488069,-0.07137271761894226,-0.04687163606286049,0.009587380103766918,-3.1974563598632812,-4.384980201721191,8.462306022644043
1713722601915488069,0.06285060197114944,-0.0884169489145279,-0.052197955548763275,0.11611878126859665,-0.3734954595565796,10.624269485473633
1713722601925488069,-0.022370552644133568,-0.024501081556081772,-0.022370552644133568,1.7717092037200928,1.7633295059204102,12.76229190826416
1713722601934488069,-0.10013485699892044,0.047936901450157166,-0.0649811327457428,1.8962076902389526,1.0869675874710083,13.051990509033203
1713722601944488069,-0.030892668291926384,0.04687163606286049,-0.06178533658385277,-1.2725181579589844,-3.823539972305298,9.837774276733398
1713722601953488069,0.041545312851667404,-0.019174760207533836,-0.019174760207533836,-3.0573954582214355,-6.253654956817627,7.787140846252441
1713722601963488069,0.1992044448852539,-0.06072007119655609,0.011717909015715122,-0.13287819921970367,-1.8483237028121948,8.578424453735352
1713722601972488069,0.22050973773002625,-0.034088462591171265,-0.0511326938867569,1.6041151285171509,2.4899697303771973,9.68933391571045
1713722601982488069,0.11717908829450607,0.015978965908288956,-0.047936901450157166,1.258152961730957,3.9049429893493652,9.962272644042969
1713722601992488069,-0.09480853378772736,0.052197955548763275,-0.037284255027770996,0.6596025824546814,4.016273498535156,11.342530250549316
1713722602001488069,-0.2407497614622116,0.06285060197114944,-0.047936901450157166,0.4429273009300232,2.412158250808716,10.607510566711426
1713722602011488069,-0.2780340313911438,0.05645901337265968,-0.02130528911948204,-0.5207388401031494,-0.8068459630012512,9.989806175231934
1713722602020488069,-0.10865697264671326,-0.020240023732185364,-0.0788295716047287,-2.8335375785827637,-5.134365558624268,8.222885131835938
1713722602030488069,-0.05432848632335663,-0.049002163112163544,0.049002163112163544,-1.1444283723831177,-4.1647138595581055,8.6275053024292
1713722602040488069,0.06711165606975555,-0.023435818031430244,-0.06924218684434891,1.9967641830444336,-0.12928688526153564,11.376049041748047
1713722602049488069,-0.020240023732185364,0.07030745595693588,-0.004261057823896408,1.932120680809021,0.6643909811973572,11.932701110839844
1713722602059488069,-0.06285060197114944,0.10333064943552017,-0.06178533658385277,-0.20470423996448517,-0.2825157940387726,13.21479606628418
1713722602068488069,0.04367584362626076,0.041545312851667404,-0.027696875855326653,-3.756502389907837,-3.912125587463379,9.537302017211914
1713722602078488069,0.06604639440774918,-0.030892668291926384,0.049002163112163544,-2.4648306369781494,-3.1423897743225098,7.3885064125061035
1713722602088488069,0.19707392156124115,-0.06604639440774918,-0.013848437927663326,0.8056488633155823,0.6045359373092651,7.94635534286499
1713722602098488069,0.07776430249214172,-0.009587380103766918,0.02556634694337845,1.2425906658172607,2.6132709980010986,9.337386131286621
1713722602106488069,-0.05326322093605995,0.044741105288267136,-0.03515372797846794,0.9409212470054626,3.7600936889648438,11.730391502380371
1713722602116488069,-0.20772656798362732,0.08309062570333481,0.03195793181657791,0.25019407272338867,2.4372973442077637,11.025299072265625
1713722602126488069,-0.1949433982372284,0.029827404767274857,-0.024501081556081772,-2.676717519760132,-1.7705121040344238,10.776301383972168
1713722602135488069,-0.06711165606975555,-0.08202536404132843,0.06391586363315582,-4.367023944854736,-6.166266441345215,8.154650688171387
1713722602145488069,0.05432848632335663,-0.1065264418721199,0.08948221057653427,-0.13407529890537262,-3.4548330307006836,8.671798706054688
1713722602155488069,0.1672465205192566,-0.04580637067556381,0.022370552644133568,2.8562824726104736,0.8762778043746948,10.377667427062988
1713722602164488069,0.06711165606975555,0.05645901337265968,0.023435818031430244,2.1368250846862793,1.8734627962112427,10.529699325561523
1713722602174488069,-0.0788295716047287,0.11824434995651245,0.030892668291926384,1.0450689792633057,2.24935245513916,11.999738693237305
1713722602184488069,-0.17044231295585632,0.11078750342130661,0.01810949482023716,-0.849941611289978,0.4967968463897705,11.537657737731934
1713722602194488069,-0.05432848632335663,0.001065264455974102,0.014913702383637428,-3.750516891479492,-4.377797603607178,8.62391471862793
1713722602203488069,-0.026631610468029976,-0.07456851005554199,0.11504855751991272,-2.756923198699951,-4.502296447753906,7.8733320236206055
1713722602212488069,0.1395496428012848,-0.09587380290031433,0.037284255027770996,0.8978255987167358,-0.24061726033687592,8.695740699768066
1713722602222488069,0.03621898964047432,-0.015978965908288956,0.05965480953454971,2.0374655723571777,2.1751322746276855,10.78468132019043
1713722602232488069,-0.055393751710653305,0.05326322093605995,0.017044231295585632,1.908178687095642,2.8131868839263916,12.594697952270508
1713722602241488069,-0.17470337450504303,0.08415588736534119,0.034088462591171265,0.788889467716217,0.5566518902778625,11.821371078491211
1713722602250488069,-0.05006742849946022,-0.006391586735844612,-0.009587380103766918,-3.0789432525634766,-4.928463935852051,9.697713851928711
1713722602260488069,-0.004261057823896408,-0.07456851005554199,0.11078750342130661,-2.9520506858825684,-5.919663429260254,7.994239330291748
1713722602270488069,0.19707392156124115,-0.07989483326673508,0.04261057823896408,1.2629413604736328,-1.302445650100708,8.450334548950195
1713722602280488069,0.13209278881549835,0.01810949482023716,0.04048004746437073,2.296039342880249,1.9285293817520142,10.249577522277832
1713722602289488069,0.03834952041506767,0.0884169489145279,0.013848437927663326,1.765723705291748,3.359064817428589,11.804611206054688
1713722602299488069,-0.11185276508331299,0.11930961906909943,0.03621898964047432,0.5865793824195862,2.2685060501098633,10.550049781799316
1713722602308488069,-0.14061491191387177,0.07243797928094864,0.01810949482023716,-2.2242133617401123,-0.8176198601722717,10.143034934997559
1713722602318488069,-0.03515372797846794,-0.03621898964047432,0.05965480953454971,-3.8259341716766357,-4.576516628265381,8.246828079223633
1713722602327488069,0.04580637067556381,-0.06817692518234253,0.11717908829450607,-0.6835445761680603,-2.8407201766967773,8.629899978637695
1713722602337488069,0.13315805792808533,-0.027696875855326653,0.044741105288267136,2.054224967956543,0.8032546639442444,10.182539939880371
1713722602347488069,0.03515372797846794,0.05432848632335663,0.05432848632335663,1.8590975999832153,1.600523829460144,10.775104522705078
1713722602356488069,-0.11185276508331299,0.09374327212572098,0.03195793181657791,0.9528922438621521,1.6615759134292603,12.328941345214844
1713722602366488069,-0.092678003013134,0.02876213937997818,-0.007456851191818714,-2.1787235736846924,-2.0865466594696045,11.3269681930542
1713722602375488069,-0.012783173471689224,-0.08522115647792816,0.0649811327457428,-3.711012601852417,-6.10401725769043,8.461108207702637
1713722602385488069,0.11504855751991272,-0.11291802674531937,0.07456851005554199,0.44173020124435425,-3.2178070545196533,8.670600891113281
1713722602395488069,0.23116238415241241,-0.04048004746437073,-0.008522115647792816,3.0346505641937256,0.8020575642585754,9.445125579833984
1713722602404488069,0.1576591432094574,0.04687163606286049,-0.009587380103766918,2.053027868270874,2.1751322746276855,9.227252960205078
1713722602414488069,0.00532632227987051,0.09374327212572098,-0.006391586735844612,0.9780313968658447,3.2525229454040527,11.288661003112793
1713722602423488069,-0.1576591432094574,0.09480853378772736,-0.009587380103766918,0.12689268589019775,2.5522189140319824,11.532869338989258
1713722602433488069,-0.20240023732185364,0.06178533658385277,0.003195793367922306,-1.5586252212524414,-0.5530605912208557,11.105504035949707
1713722602442488069,-0.05645901337265968,-0.049002163112163544,-0.01810949482023716,-3.691859006881714,-5.342660903930664,8.146270751953125
1713722602453488069,0.009587380103766918,-0.08735168725252151,0.07989483326673508,-1.1348515748977661,-4.155137062072754,8.060079574584961
1713722602462488069,0.15446333587169647,-0.06604639440774918,-0.03302319720387459,2.27209734916687,0.11013327538967133,10.0580415725708
1713722602471488069,0.04261057823896408,0.022370552644133568,-0.00532632227987051,2.3690624237060547,1.4532804489135742,11.268310546875
1713722602481488069,-0.07776430249214172,0.07243797928094864,-0.0511326938867569,1.6962919235229492,1.7130513191223145,12.914323806762695
1713722602491488069,-0.05752427875995636,0.052197955548763275,-0.06391586363315582,-1.4185644388198853,-1.7812860012054443,10.723628997802734
1713722602500488069,0.022370552644133568,-0.04367584362626076,-0.012783173471689224,-3.3411083221435547,-5.455188274383545,7.948749542236328
1713722602510488069,0.14274543523788452,-0.07989483326673508,0.020240023732185364,-0.16759411990642548,-2.7066450119018555,8.299500465393066
1713722602519488069,0.222640261054039,-0.026631610468029976,-0.04261057823896408,2.360682725906372,1.4700398445129395,9.677363395690918
1713722602529488069,0.13635385036468506,0.044741105288267136,-0.05645901337265968,1.7693150043487549,2.7533318996429443,9.551667213439941
1713722602539488069,-0.04367584362626076,0.07456851005554199,-0.04367584362626076,0.5566518902778625,3.3399112224578857,11.161767959594727
1713722602548488069,-0.1757686287164688,0.06711165606975555,-0.06391586363315582,-0.33518823981285095,2.231395959854126,11.050437927246094
1713722602558488069,-0.17363810539245605,0.015978965908288956,-0.03834952041506767,-2.2158336639404297,-1.3682862520217896,9.287108421325684
1713722602567488069,-0.07669904083013535,-0.08202536404132843,-0.037284255027770996,-3.070563554763794,-4.701014995574951,8.091204643249512
1713722602577488069,0.019174760207533836,-0.09906959533691406,0.024501081556081772,0.19393032789230347,-2.7222073078155518,9.340977668762207
1713722602587488069,0.08096009492874146,-0.04048004746437073,-0.06391586363315582,2.7676970958709717,0.41778817772865295,11.435904502868652
1713722602596488069,0.013848437927663326,0.05006742849946022,-0.05432848632335663,2.472013235092163,0.6165069341659546,11.587936401367188
1713722602606488069,-0.07350324839353561,0.0884169489145279,-0.07776430249214172,0.5734112858772278,-0.4800374209880829,13.292607307434082
1713722602615488069,0.05432848632335663,0.013848437927663326,-0.10759171098470688,-3.0406360626220703,-4.7357306480407715,10.54645824432373
1713722602625488069,0.07669904083013535,-0.049002163112163544,0.020240023732185364,-2.009932279586792,-4.787206172943115,8.028955459594727
1713722602635488069,0.26631611585617065,-0.06604639440774918,-0.09587380290031433,1.5574281215667725,-0.6871358752250671,7.759607791900635
