t,gx,gy,gz,ax,ay,az
1.713723961487437e+18,0.00217227136597717,0.0007547363909669684,0.000354314134208093,-0.11748983623889615,-0.04771060257154913,9.794377694078653
1.713723961497437e+18,0.0020278352858114517,0.0014866691106779125,0.0003219237284635407,-0.12633534392614568,-0.049088581969977244,9.794753910592625
1.713723961507437e+18,0.0019830997770721656,0.0015936840667269473,0.0004685875781750534,-0.14569160355840058,-0.06991683027833195,9.792170517116462
1.713723961516437e+18,0.0021649329252885143,0.0013076672383064921,0.00020127430896840336,-0.13927011174339668,-0.06690236875580093,9.792087365539317
1.713723961525437e+18,0.0021902072687457344,0.0013482568657643716,0.0001403339645709225,-0.12115179825882202,-0.04633157646600254,9.792669962198872
1.713723961535437e+18,0.0018408311495567594,0.0012001105697960427,0.00022534063013403884,-0.12355899440867046,-0.0508357176911137,9.79330620397424
1.713723961545437e+18,0.0016862098200785972,0.001552948697324892,-6.36594344049303e-05,-0.13949662354835513,-0.069501651020377,9.791235374497365
1.713723961554437e+18,0.0013366076887361348,0.0014565679149851367,0.0003001818340103561,-0.13554694882709814,-0.06603312159915924,9.790890134940831
1.713723961563437e+18,0.0014679961246806456,0.0014696539919672696,0.0001672488461606069,-0.11889067106584647,-0.04570161632823466,9.79526188675518
1.713723961573437e+18,0.0018290627686584956,0.001287611803862377,8.03423666011674e-05,-0.12163157170186749,-0.0508334566691451,9.79748138630412
1.713723961582437e+18,0.0019783858774327086,0.0015119490742142735,0.00024173385811681182,-0.13886946784712192,-0.06988891830192023,9.795337986029066
1.713723961592437e+18,0.001861305616701562,0.0013821899973050743,0.0006636613719274116,-0.13878515710254827,-0.05914793410921383,9.792983911928621
1.713723961602437e+18,0.0019931175525656473,0.001614444993353752,0.00011318374250702439,-0.1254076401744707,-0.042919946205501186,9.792226526415316
1.713723961610437e+18,0.0018925658049382876,0.0017331263875539956,0.0004110778342830964,-0.1311671632522285,-0.05351061686008947,9.791518877675271
1.713723961620437e+18,0.0020573503076290163,0.0018750924797346922,0.00020209169064468223,-0.1417089079301006,-0.06583498454279388,9.793810462688816
1.713723961630437e+18,0.0019207038103388307,0.0014633001251142803,0.0005108995018603802,-0.1356733894685917,-0.057399070828882334,9.79370646735265
1.713723961639437e+18,0.0018090204900154583,0.001482226946503397,0.00047462402692305037,-0.12480905880763418,-0.04664077146269931,9.79584865833343
1.713723961649437e+18,0.001629222351031162,0.000974260493721378,0.00021326268009808997,-0.13611317818576385,-0.05617805897880193,9.795558624285976
1.713723961658437e+18,0.0018154707595460077,0.001258068331481441,0.00018356209290900272,-0.14177815894929774,-0.06584369193233475,9.793361183174474
1.713723961667437e+18,0.0020921166831355965,0.0009024089563078675,0.00048425082708870187,-0.12730773241700935,-0.05922480952547786,9.795694976230777
1.713723961677437e+18,0.0018181603913158722,0.001361601111714249,0.000296930640584628,-0.12006026505029137,-0.051863303459277,9.7979100032415
1.713723961686437e+18,0.0020296756939229654,0.0012733146596889153,5.7234729375506364e-05,-0.12574196604946541,-0.06193241429802254,9.795792114676223
1.713723961696437e+18,0.0023738288201683323,0.0012658460316838532,0.0003012799156446083,-0.12904553465863836,-0.06568939788363092,9.793045036784177
1.713723961705437e+18,0.002256552829302399,0.0012540783219354575,0.0006638143147089018,-0.11989788775978623,-0.04953899358159157,9.795169697614924
1.713723961715437e+18,0.0015015918014565192,0.001278816652400421,0.0003152042320822124,-0.11917035947906154,-0.044794668630565734,9.791213891649795
1.713723961725437e+18,0.0014878640633861856,0.001183379141778804,0.00029258683885439264,-0.13092311174517673,-0.05943227736685059,9.786836315946173
1.713723961734437e+18,0.0016095421099574007,0.0011585368829590138,0.0004562431497474109,-0.13509288645883646,-0.0630521841492083,9.791389157755567
1.713723961743437e+18,0.0018142339058346217,0.0014479113826374361,0.00032898288895100657,-0.1252720136238556,-0.04774698419012127,9.795696705966305
1.713723961753437e+18,0.0017869263388437036,0.0014838266040853938,0.00010409533228249938,-0.1247120903162013,-0.05340138565230753,9.793847687187851
1.713723961762437e+18,0.001814447234057219,0.0014188467203836124,0.0002890501718379057,-0.13870161262040395,-0.0709139347852378,9.790110090040953
1.713723961771437e+18,0.0020247282995192574,0.0010101820462460737,0.0004521512082786194,-0.13474728239326247,-0.06339879314877733,9.791829927430031
1.713723961782437e+18,0.0016291967667219844,0.0012360894620606969,0.0003201244912052731,-0.12024148967377973,-0.04477965752764187,9.797959963607237
1.713723961791437e+18,0.0017836798072275537,0.001486384256610873,0.0002970707978893204,-0.1258917039737379,-0.04824361259784132,9.797163434175378
1.713723961800437e+18,0.002025829741594623,0.0014236534987097733,8.911476349903353e-05,-0.138231539864266,-0.06606968254622286,9.792509770347525
1.713723961810437e+18,0.0018145066860883832,0.0014894420558649922,0.0006420151021903308,-0.13178593230799543,-0.061834457473882914,9.792581031717335
1.713723961819437e+18,0.0014618583112988508,0.0013552058606221963,0.0007253170321110331,-0.11289962863055061,-0.044146875180244245,9.79404033790284
1.713723961828437e+18,0.001972384800793387,0.0014839499863530939,0.00024168814175783935,-0.11862343744596318,-0.05409891295321734,9.792070657957101
1.713723961839437e+18,0.001773315675533539,0.0016719062690853282,0.00022568149384704495,-0.13803807821202146,-0.07431721580133403,9.790009608083576
1.713723961847437e+18,0.0016045000491543434,0.0015461932425184692,0.00029002807909436453,-0.1241719570217831,-0.061878760210163246,9.79119704365268
1.713723961857437e+18,0.0019630532288256713,0.0016376632216137498,0.0005061838419772287,-0.11105125610265124,-0.04762732567598063,9.793555394307011
1.713723961866437e+18,0.0016643802152382886,0.0015516070437471563,0.000442326947441985,-0.13595449314149677,-0.05612666540228385,9.79372867322294
1.713723961876437e+18,0.0019788144909920085,0.0016951277505431227,0.000501546319608288,-0.15394251885485627,-0.06500601854885331,9.79210813754314
1.713723961885437e+18,0.0018174213468271766,0.0015850715255305713,0.0005496328078149189,-0.13547890263535473,-0.056725429764220216,9.794822028689275
1.713723961895437e+18,0.0018182230285999715,0.001548048945314377,0.0005009825054451256,-0.11946728640972748,-0.04438474107639588,9.79529576569379
1.713723961904437e+18,0.0017333080045416533,0.0015617060146442163,0.00029925197142843183,-0.1305224396761024,-0.057909249840434905,9.794367294727326
1.713723961914437e+18,0.0016780976163501956,0.00129395676297235,0.0005101840311756531,-0.13872355184030935,-0.07282553130807691,9.791909699080007
1.713723961923437e+18,0.0020241647315482687,0.001079473160215628,0.0003694801374079565,-0.1258442284390473,-0.05768997484199723,9.789348309754196
1.713723961933437e+18,0.0020262733223166125,0.001572825328885417,0.00043517542356348923,-0.11582004104556251,-0.04783717837173237,9.792826192224599
1.713723961942437e+18,0.0018961144086959765,0.0017010419754452711,0.0002659850612732108,-0.1269807968814392,-0.06210624406997273,9.79379734588231
1.713723961952437e+18,0.0017445501386074455,0.001124495308344767,0.0004298819559699593,-0.13888948119593336,-0.06750239119547174,9.79155419139864
1.713723961961437e+18,0.002076208528993504,0.0012681873417568663,0.00044802197752431827,-0.12986819487965642,-0.05032536688546755,9.792746450409407
1.713723961971437e+18,0.0021922288463123306,0.0014834087944920996,0.00028182499651253955,-0.12076599949857748,-0.040884999539176806,9.7953179309793
1.713723961981437e+18,0.0020272189755362133,0.0014586739727875263,0.00028476063486066605,-0.13349493548170432,-0.05525608675311448,9.793629644955319
1.713723961989437e+18,0.0018137983125512324,0.0011535861792714894,0.0004108222689105847,-0.14109041758380944,-0.06118386452195061,9.790715356401929
1.713723961999437e+18,0.0018149542173783195,0.0011829344611622738,0.00031983200236536386,-0.12710820286595192,-0.04865309059857513,9.790620410291941
1.713723962008437e+18,0.0018184037291037625,0.0016294456062259737,0.00023469413016807415,-0.12026314041784697,-0.0523317022279578,9.790185640308977
1.713723962018437e+18,0.0017902075638455395,0.001700605961388645,4.6027155001333625e-05,-0.13712585354395035,-0.07174794905026988,9.793952342401015
1.713723962027437e+18,0.0016108170508321454,0.001697702179099841,0.0005898693049438358,-0.14196637636222154,-0.06849470883564719,9.794785773547291
1.713723962037437e+18,0.002044375713717734,0.0013491889009115267,0.00039027257400588893,-0.12360905718932011,-0.04593520010855148,9.79426583925815
1.713723962046437e+18,0.0016256778325863459,0.001268326786730986,0.0002863115726216776,-0.12376490457475872,-0.04645139663096172,9.795963570308375
1.713723962056437e+18,0.0018072004637173528,0.001345884342234322,0.0002217039496220286,-0.13851336411258408,-0.060921042826495624,9.793559064361443
1.713723962065437e+18,0.0015162942628952204,0.0012659729224738076,0.0005101331173550802,-0.1382404807991336,-0.05874332247127772,9.793242871893137
1.713723962075437e+18,0.00182061825171874,0.0013868734296916972,0.00014594509342795534,-0.1261363867702645,-0.05198661357125361,9.79324628121047
1.713723962084437e+18,0.0017993464665209385,0.0013991655100472418,0.0003171331487410627,-0.123125439339147,-0.06291987286567845,9.79213572005308
1.713723962094437e+18,0.0018138496155090688,0.0011641247754664286,0.0003642510447172124,-0.13550649582656293,-0.06937881273057368,9.793536451533235
1.713723962104437e+18,0.001707920104178666,0.0010640645815906558,0.000602465562548263,-0.13414962745988684,-0.05518332695879314,9.794157826483287
1.713723962112437e+18,0.0018528260423210385,0.0017127900665121609,0.0005828626198940792,-0.12190215902159993,-0.045535592947379716,9.79429475880286
1.713723962122437e+18,0.001693900287298657,0.0016212618583624177,0.0003293131129427213,-0.12737916303152202,-0.05202680844325992,9.792360956233956
1.713723962132329e+18,0.0017006215363124634,0.0014481202375717069,0.0005051095196246989,-0.14240953306477494,-0.05901398806133464,9.791211953410569
1.713723962141329e+18,0.0017307039353566455,0.0011453179763746572,0.0006072631737110565,-0.13488996725922547,-0.05219802546458321,9.794347524537143
1.713723962151329e+18,0.0016987842363307836,0.0010573645388522986,0.0005018373171523725,-0.12091706058269566,-0.04772980563034411,9.795804210584578
1.713723962161329e+18,0.0017189985648098536,0.0015110535484876924,0.000289438499361721,-0.13133629590416396,-0.06293880897752305,9.793079136904312
1.713723962169329e+18,0.0018748750184708679,0.0011266428806623963,0.0003460863720374358,-0.13722127374486232,-0.07265011048792497,9.79063708965113
1.713723962179329e+18,0.0018470586940514966,0.001205453921836505,0.000500175720762361,-0.12437481391236274,-0.05791700929110363,9.794958992064167
1.713723962189329e+18,0.0016201001299081528,0.0013122939358391494,0.0005038041540217219,-0.11940284665582736,-0.0468536655461187,9.796705916767607
1.713723962198329e+18,0.0017867130842497254,0.0014096787980316593,0.00020172513485631707,-0.13680982738818176,-0.06121645924636453,9.790614601760426
1.713723962207329e+18,0.0018139048365665971,0.0012699333213057505,0.00031214906996930483,-0.14781034174192345,-0.06705376042495394,9.790502691573739
1.713723962217329e+18,0.0017436398717751338,0.0013665749893703137,0.00014387044184844882,-0.13027602654875886,-0.049562617134561976,9.794251135035992
1.713723962226329e+18,0.0015212266459419272,0.0012789849087069401,0.00012137337591444262,-0.12044611783167328,-0.046133596408877424,9.796278714556218
1.713723962236329e+18,0.001602328263600333,0.0012551631709928695,0.00022433025523015896,-0.13147588007156538,-0.06423315069877082,9.79437900481207
1.713723962246329e+18,0.0016006757207120306,0.001027072393530479,0.0004120302061806248,-0.1268832445708931,-0.07156581815891493,9.792121255478493
1.713723962255329e+18,0.0018283343977385015,0.0010530454200380329,0.00023692311218463603,-0.11048733339527839,-0.05534364093781109,9.795399292980955
1.713723962264329e+18,0.0018137999523584521,0.0012177745435831596,0.00026009861983771496,-0.11309354410881733,-0.05250690008276443,9.79548076457977
1.713723962274329e+18,0.0013910432852286341,0.0015187492997769238,0.000358976705806987,-0.13014462388273365,-0.0672952142323088,9.79255810025782
1.713723962283329e+18,0.0016133116234566941,0.0012577670127658816,0.0005126133924545561,-0.13810300703768236,-0.06509722369689301,9.795000513240428
1.713723962293329e+18,0.0019188290752103633,0.001255561861278024,0.00044444062087332394,-0.11790380271767448,-0.048470648791184526,9.797737272034805
1.713723962302329e+18,0.0020270466347939602,0.001055274539770834,7.505336322918626e-05,-0.11841284040468189,-0.05293107212883935,9.795461189351029
1.713723962312329e+18,0.001744080684945999,0.0010340690267100997,0.0004225723756939769,-0.14031135687466884,-0.06884396205443147,9.792591363384464
1.713723962321329e+18,0.0016019369097648758,0.0013066299329497235,0.0007220388145981653,-0.1303844563068236,-0.06966587387384969,9.79315516304983
1.713723962331329e+18,0.0019399204940766103,0.0014527671670130297,0.0006139609681706879,-0.11144984282853398,-0.05891650491366597,9.795742103278494
1.713723962340329e+18,0.0021902884163049227,0.0009871477583997452,0.0002626585542368115,-0.15302873064582462,-0.06886714677512785,9.916059669798614
1.713723962350329e+18,0.010195080592516009,-0.001316014276026437,-0.0008834968848690027,-0.22071028362056938,-0.11812829967628563,10.240581586527915
1.713723962359329e+18,0.02598728604838084,-0.001536499917974311,-0.000820533886956851,0.14047040218063045,0.19177312884152434,10.310838837578967
1.713723962368329e+18,0.054582260567403576,0.010681952426274698,-0.0023087056406449866,0.4135115866227018,0.5689594497915318,10.060863543336286
1.713723962378329e+18,0.08297868111032031,0.017376683696375538,-0.007556542429582983,0.07272926361684404,1.0393685842136229,9.985975421513277
1.713723962387329e+18,0.11005471234753271,0.01358991844431413,-0.011572453752137066,-0.255693688647293,1.8685571272773875,9.434121816690762
1.713723962397329e+18,0.09770068516260474,0.0026789165098523113,-0.014786264896596433,-0.4409823245647109,2.7749653525188434,9.03214610344458
1.713723962406329e+18,0.04910782138030724,-0.011860061478085056,-0.01790420543068132,-0.39670841200465623,3.9226834824332446,10.367609146557147
1.713723962416329e+18,0.022096727630782735,-0.022400585799993957,-0.029033604067560087,0.1671453312550996,4.298930217537768,10.136974558949714
1.713723962426329e+18,-0.033461846976452526,-0.013203692139855523,-0.030725904014144313,0.6926245227229962,3.5550401100744233,9.086049929856902
1.713723962435329e+18,-0.0738533551633907,0.0037791916119368704,-0.0373370176601363,0.8105937380047807,2.856940154672568,9.824546261012122
1.713723962444329e+18,-0.06270793141396744,0.024040249553231908,-0.03477539081416729,0.5836046627098459,2.1613177061735023,9.886800043340738
1.713723962454329e+18,-0.049094981860021245,0.03532162636390521,-0.03282523568980825,-0.08291458642246291,1.3377813445198254,9.054477824059747
1.713723962463329e+18,-0.043736016210207326,0.02309741107083787,-0.03337922600935927,-0.830988099802332,1.2068948559135342,9.660737098663322
1.713723962473329e+18,-0.009711766539674434,-2.7078227703807348e-05,-0.03167906354814362,-1.1589390998785984,1.2651778968866831,10.025510067113176
1.713723962483329e+18,-0.0006659679894548614,-0.02330230384561939,-0.02740223056363245,-0.9631334790250307,1.4622156187335291,10.023915725013499
1.713723962492329e+18,0.012328263692259957,-0.03710190421139466,-0.03202754365311406,-0.37127071109488297,1.8007836268621735,10.120850276031026
1.713723962501329e+18,-0.004162238559263954,-0.037500522389416646,-0.04025586929223896,0.41657384701882594,2.0840988627812473,10.559126173545518
1.713723962511329e+18,-0.009257786173801203,-0.016453191914508315,-0.04701979923772652,1.032265678434368,2.0103594529780997,10.827770440451417
1.713723962520329e+18,-0.0228278742377511,0.013826029443794791,-0.050570828110591604,1.0453152450408052,1.323597430009632,10.386137244503274
1.713723962530329e+18,-0.010322904014592927,0.030679911668131922,-0.04418161665146144,0.18182586346052435,0.2958417401481003,9.906773923692846
1.713723962540329e+18,0.024107938308501956,0.0200002637883865,-0.041124376761953275,-0.9220222901904344,-0.742264499427358,8.921776570440203
1.713723962548329e+18,0.0377971696753025,0.005362272549157623,-0.018581103434917274,-1.0659465183323513,-0.23998712900439076,8.741251554678414
1.713723962558329e+18,0.051659679433699465,-0.010992463948987025,-0.027279852342769847,-0.4682820377769364,1.2374217626274986,9.22825277805909
1.713723962567329e+18,0.021258438862539444,-0.011296462508684123,-0.02084960030213183,0.029082138662829188,2.143775578811985,9.813414762284705
1.713723962577329e+18,-0.037733218020555924,-0.004095349658833773,-0.030485017532755745,0.3795493414314897,2.3753388623899445,10.380162839784308
1.713723962586329e+18,-0.08144305231137833,0.0036322130705313416,-0.030905075177434498,0.4197917623670718,1.3409906344056286,10.423903848598572
1.713723962596329e+18,-0.05062378889335966,-0.014933972351912286,-0.04154093381167575,-1.1260675410219962,-1.875925623564988,10.014679354642048
1.713723962605329e+18,-0.011798670824527246,-0.03609305327555916,-0.019197817546757725,-1.5867934126046774,-3.661194685977369,9.494709382383995
1.713723962615329e+18,0.06854213158747706,-0.030130293047780993,-0.02179255590010163,0.9074031278809654,-1.5615890387655462,9.058169084508286
1.713723962625329e+18,0.09713719349600741,0.020033174141882302,-0.030270143643912412,2.2024288031977486,0.8217708068250598,8.863312852080396
1.713723962634329e+18,0.07622108024053528,0.0670239069299741,-0.04022523395611116,1.3029828883741557,2.2920589912515137,8.822997022697294
1.713723962643329e+18,-0.007553996960116431,0.08009045574917294,-0.041224958140766654,-0.3355120746802079,3.703671474963099,10.010986835051574
1.713723962653329e+18,-0.11242863226952798,0.043469190884038444,-0.041990954871175774,-2.0227242888720847,3.5008451976159844,12.220188803912627
1.713723962662329e+18,-0.11391680310611794,-0.05742414323582304,-0.03826788073202683,-5.40705352925183,-1.740722794030765,12.317240272668496
1.713723962672329e+18,-0.06215745314548117,-0.17228469555010484,0.014981343494401486,-4.824377397210623,-7.567386685520908,10.584875159317868
1.713723962681329e+18,0.0820046756824989,-0.13872033061513245,0.03706272522996095,4.1147765594230465,-5.975152100576039,9.262041375367183
1.713723962691329e+18,0.21278750004778818,0.003687921612623309,-0.030494091591712298,6.943259470999375,-1.7067043612825503,8.58890418736857
1.713723962700329e+18,0.2554954370466898,0.13191661727221743,-0.021180681304235796,3.198253747164304,1.2538698160893818,7.912189550048613
1.713723962710329e+18,0.19057722254054155,0.18574229567624215,-0.03889198429651334,0.4137874148464887,4.333212608927849,8.275094927035381
1.713723962719329e+18,0.05660552175081951,0.1543103778527109,-0.01451048628242054,-2.555866487460857,6.8581504814040475,9.41801487313955
1.713723962728329e+18,-0.11624130237125527,0.07534066327146766,-0.014019125492063337,-3.7598652280431986,6.837332771137453,10.182151875137208
1.713723962738329e+18,-0.26266711575714335,-0.02575914092055241,-0.004803550394035266,-3.490470450118465,4.117020917921203,10.706193913481528
1.713723962747329e+18,-0.23855321730902618,-0.138606183264156,0.00554812107244081,-4.483394004063347,-2.4061219057414753,9.830070431893455
1.713723962757329e+18,-0.15477821985382828,-0.19565744334856414,0.03920039801252694,-2.078511259061537,-7.006992187077511,8.783740461327062
1.713723962766329e+18,-0.01337802748160387,-0.13467592589934754,0.031892907354798224,4.129588067418524,-4.4937014348680915,9.211062863639997
1.713723962776329e+18,0.0926187374595133,-0.006491923844773494,-0.01554557325024984,5.987337291066999,-0.6435155280009474,9.860744498379685
1.713723962785329e+18,0.08078780023887865,0.10985328591339039,-0.0198217400748526,3.8363108680503113,1.6756230975369837,10.559466460607347
1.713723962795329e+18,-0.000455565372578884,0.15623946812655776,-0.04105242003833789,0.3902628635821036,2.6579962816574274,11.998121835510988
1.713723962804329e+18,-0.008398187282146523,0.06711753825542245,-0.03702020759416518,-5.4893023483703045,-1.0168884506031013,11.50664178722842
1.713723962813329e+18,-0.004658016902561883,-0.05615475620431029,0.0084840407880849,-5.185085545122607,-4.3833806208405734,9.631452888506201
1.713723962823329e+18,0.06945212652022968,-0.09618970487382428,0.012346565601950295,0.6927341652293303,-2.2103399119487634,8.840756768757403
1.713723962833329e+18,0.13966253759957642,-0.04367263550619727,-0.006290802561870805,3.073128034173569,0.7147696232738554,8.559565835680583
1.713723962842329e+18,0.12021103858131596,0.03286053082281852,-0.010475207789301319,2.919985504222973,2.370410994444067,8.240644471823858
1.713723962851329e+18,0.03583386678204214,0.08835365066856884,-0.014448636322201133,1.4145048119831773,4.249921161904635,9.121808660870585
1.713723962862329e+18,-0.09678308005466887,0.10074646447596089,-0.024417998292931363,-0.6759628549089374,4.742797575549098,10.129277430784725
1.713723962870329e+18,-0.17096898035459843,0.05749393314827967,-0.016140408637324664,-3.174022883203137,2.6237688911955552,10.56945075308926
1.713723962880329e+18,-0.1408256641821546,-0.05609900615725071,-0.009073393375256249,-5.373933516179769,-2.5473322897066177,9.698473193862256
1.713723962890329e+18,-0.10725287039249834,-0.13095879593502352,0.03800608866798426,-2.418560650587122,-3.963866780079735,9.101202922463012
1.713723962899329e+18,-0.015098468124772578,-0.11045540609566626,0.01139972834008977,2.8550979319296514,-1.0635698867206074,9.833883507655013
1.713723962908329e+18,-0.01398896783032244,-0.021443638024957523,0.00574754987059554,4.32109327518978,0.613543834325939,10.871107856206168
1.713723962919329e+18,-0.04193495636269698,0.0726156785629809,-0.016989750408731637,2.7984089293599137,0.40056162145458263,12.346492030151197
1.713723962927329e+18,0.012369958204473277,0.06286166472588255,-0.029304283770082436,-1.988839992857129,-3.87277589818343,11.428107094420664
1.713723962937329e+18,0.06691364740303614,0.0092383135798806,0.016028435139563355,-3.0162720327631347,-6.027678617659083,9.641892828597962
1.713723962946329e+18,0.16989484690474516,-0.00854946110798587,0.01363025016831766,0.8631575489166544,-2.2769039094662378,8.770003966142779
1.713723962956329e+18,0.20814882982961636,0.028568596047394618,-0.006930195305562822,1.9330902335371913,1.6730262450017874,8.400146746297043
1.713723962965329e+18,0.15828456940973906,0.06419191602344063,-0.015740635694486763,0.747041543215636,4.011952193956585,8.271827716058961
1.713723962975329e+18,0.02560667550491575,0.06327279430668492,-0.011729716559928131,-0.930380130017415,5.809548101552634,8.934625720508643
1.713723962984329e+18,-0.11967774121480113,0.028528390902728448,-0.021588948950931157,-1.9354132137332785,5.782999180937532,9.703131603371602
1.713723962994329e+18,-0.24011837980534279,-0.024954155111916596,-0.0027544802996330845,-1.802000220423966,3.353970308968379,10.118341794829394
1.713723963003329e+18,-0.2200667185240952,-0.08425950771179322,-0.008579816075290807,-2.3950602438263595,-1.7232811008532756,9.762742967947274
1.713723963013329e+18,-0.13271403269280335,-0.11764143506319488,0.023110027554592946,-1.6512235363903522,-5.768575704584999,8.885633209032921
1.713723963022329e+18,-0.03616525735249537,-0.0793917522959315,0.02295094202159609,2.463479585642252,-3.686629047660428,9.597891457899976
1.713723963032329e+18,0.030270178287328902,0.016725894817068102,-0.010503001394756493,4.583731169465866,-0.007168105800714919,11.553631851324385
1.713723963041329e+18,0.016938947102941256,0.08660154013014142,-0.021545523621840475,2.2436810368215423,0.13083018720988074,12.840094401995438
1.713723963050329e+18,0.06011441814210803,0.06153798725922835,-0.04083138425756435,-3.0713918135150178,-4.045667927452055,12.119260849300833
1.713723963061329e+18,0.10995023963933284,-0.012600799973590027,0.024359560527221796,-3.5233190877033835,-5.767300904668915,9.559722445575582
1.713723963070329e+18,0.2063894789211072,-0.029759735080056908,0.009146152178478608,1.1983874918818807,-1.588963619573177,8.391207631896862
1.713723963079329e+18,0.24357083992582684,0.0215946170437142,-0.006043442268314023,2.60956262564975,1.8360945980708805,7.830535595492318
1.713723963089329e+18,0.17984226033515974,0.08312495824172117,-0.015740364518478156,1.324562656522362,4.487027345408457,7.814989213716115
1.713723963098329e+18,0.04370306709317567,0.08891937516399581,-0.012891655788091278,-0.9273189559517206,6.557013953659041,8.73416295726807
1.713723963107329e+18,-0.12059322450017161,0.04476504247112388,-0.017516209085493725,-2.518369122226229,6.736561668840881,9.723129915234134
1.713723963117329e+18,-0.2642637567253167,-0.024919548932634063,-0.0004911540040689474,-2.52434046220847,4.250163987469094,10.103138386613708
1.713723963126329e+18,-0.27456315726597635,-0.09247275348179886,0.0014172259417152143,-2.647576453083034,-0.8375853029567281,9.997239071284314
1.713723963136329e+18,-0.16839603634060724,-0.14254504995507478,0.024547571427053095,-1.967573057093447,-6.190691963004352,9.247274524651775
1.713723963145329e+18,-0.07012909529499375,-0.09782819875887977,0.044206584805022174,2.8258628488173034,-5.4802064784955995,9.777837119534372
1.713723963155329e+18,0.030494075822356477,0.007755931968165064,-0.01675384649840186,5.340231876585552,-1.3783246442185466,11.902053478988291
1.713723963164329e+18,0.05285473735999235,0.0880716481767472,-0.011835359901322475,2.2076756111294245,-0.8108450914803202,12.762809967103443
1.713723963174329e+18,0.1007843572028086,0.06500133585573063,-0.038604808340982705,-2.5371879733400573,-4.227747169335077,11.45197958870886
1.713723963184329e+18,0.13633764758468905,0.011273657845297621,0.019565913170125068,-2.8585542183348807,-4.421550163253968,9.39183198210493
1.713723963193329e+18,0.2161923386877489,-0.014570302093385043,-0.002350683106915526,0.5868870916202943,-0.5681270549004949,8.500043057593896
1.713723963202329e+18,0.22513266633664913,0.0175491362383748,-0.005497680649394738,1.4344465013015988,2.362846282556254,8.104023602985917
1.713723963212329e+18,0.15857612421751255,0.04991553525169647,-0.012751465427160933,0.6546215599322869,4.631169723399499,7.73904811575972
1.713723963221329e+18,0.025364084490530823,0.052065501759521,-0.006827867631800909,-0.5230928844139804,6.175699670440434,8.290782528668968
1.713723963230329e+18,-0.12929810672123793,0.026533041912544773,-0.015323573620507326,-1.3656108070272428,6.193409148793707,9.565866847537484
1.713723963241329e+18,-0.2667629767094279,-0.014537401450046498,-0.00653115182581223,-1.3460105463556757,3.572140792085171,10.32366353880416
1.713723963249329e+18,-0.25080761542834695,-0.06385432188617944,-0.007828572388087953,-2.5451021203872006,-1.6290017841459352,10.357673723606654
1.713723963259329e+18,-0.13948356042724086,-0.12595437314769667,0.010554174565547483,-2.8239970042719285,-7.043156080062482,9.655249801017852
1.713723963269329e+18,-0.03430466259188501,-0.09880345987736491,0.03635373935022821,1.9571489804071895,-5.103518547664572,10.317404275194932
1.713723963278329e+18,0.07223630387828711,-0.012623787425678648,-0.021428438547289114,5.1393097604781905,-0.7498335476901762,11.375457462449203
1.713723963287329e+18,0.044359640998133165,0.09061185310449926,-0.016707180175020007,3.565468579252745,0.3739303143264476,11.421166606598993
1.713723963297329e+18,0.063567553606053,0.10412147353037009,-0.05302024994460403,-0.9430872981687961,-1.7807650990864325,11.354159764128548
1.713723963306329e+18,0.09965991391335192,0.044438079875279674,-0.011270808031736454,-4.068684196298347,-4.2680977941606475,9.626087789467357
1.713723963316329e+18,0.153408775491863,-0.0121992598540802,0.01461618562140016,-1.494367683945098,-1.654107534167072,8.697155420331626
1.713723963326329e+18,0.19465117047129993,-0.011499259635801614,-0.009301534252080244,0.7848362327785962,1.9074386564282253,8.355759233126124
1.713723963335329e+18,0.14098318616818456,0.011599445377467436,0.0026923582200477428,0.5373894654594759,3.7300376028523634,7.739819749185676
1.713723963344329e+18,0.02998060456370063,0.016585347332706436,-0.007026743814098445,-0.014634804127732957,5.429871252352279,8.698813692080396
1.713723963354329e+18,-0.1127665771859286,0.011598389615777511,-0.009803644260412178,-0.4443957976100139,5.544070441152816,9.70898254578939
1.713723963363329e+18,-0.23030971953508445,-0.0008052815171340482,-0.01260257543552294,-0.6057000181423745,3.6160188168772707,10.095441628596765
1.713723963373329e+18,-0.22294058132804093,-0.04362600342948713,-0.011299625955377021,-1.8547822582717066,-1.1256613768809884,10.21339732411572
1.713723963382329e+18,-0.12589144091086563,-0.09869354748567077,0.008240408716077913,-2.9956435673762836,-6.674039571005195,9.730535789016695
1.713723963392329e+18,-0.030957155434232518,-0.0821743279771252,0.033907923061192426,0.9703839352043335,-5.302898915389634,10.771551674922007
1.713723963401329e+18,0.07606688841377846,-0.007678825735723407,-0.011657961335371572,4.606661260334778,-0.973777002524572,11.683604077156485
1.713723963410329e+18,0.06490104032904334,0.07473107005058245,-0.01376292358839079,3.1265187701052852,-0.07604409801823148,11.622780325003538
1.713723963420329e+18,0.10627936818288151,0.08035338701233886,-0.04738644229968076,-1.2438287718130963,-2.338200900475041,10.424334994462132
1.713723963429329e+18,0.1145578123828227,0.03742533224199642,0.0025656386571454672,-3.0819557055927005,-3.062762267599503,8.878890631668785
1.713723963440329e+18,0.18224003470467587,-0.012444438668896407,-0.005814695011827767,-0.9946770858650424,0.2063526353875036,8.163943824946646
1.713723963448329e+18,0.1604426441042882,-0.011302027364297737,-0.0060205769391321684,-0.12319628769943759,2.818878334723001,8.231234573617984
1.713723963458329e+18,0.0767939870779939,-0.0107435696471275,-0.008932731376535576,-0.30032283378333996,4.751003690558778,8.980479476369004
1.713723963467329e+18,-0.053178496608467185,-0.016634946170737342,-0.0014994251430732713,-0.24834461038664019,5.265144835732827,9.803048399633084
1.713723963477329e+18,-0.18189317867687627,-0.0190940078191964,-0.013765172988167129,0.05484255699044728,3.769819271237124,10.431196742065437
1.713723963486329e+18,-0.19508194359578396,-0.04093127028427395,-0.014899346225039328,-1.210901693439985,-0.5668280037817041,10.478573816612005
1.713723963496329e+18,-0.09212411924185218,-0.09478295423678684,-0.003341778932306344,-2.8236495955398397,-6.438896574805358,9.339935501197466
1.713723963505329e+18,-0.0019292469422133452,-0.08348364603115908,0.02578105177710141,0.7170033308854857,-5.245858484493907,9.303216222657952
1.713723963515329e+18,0.11730888822818203,-0.016793656635215176,-0.017004130547011543,4.2601686164586035,-0.3641520045789682,10.36026166255226
1.713723963524329e+18,0.08580519927905945,0.06760168579609088,-0.01598952767115175,3.146376031923474,1.4617970247172232,11.024962533271337
1.713723963533329e+18,0.024104799155095613,0.10628749497164085,-0.029862455909521853,0.4298305978879931,1.7273216854400897,11.753681297882896
1.713723963543329e+18,0.043247739966966944,0.04579892452463399,-0.03368606759292203,-4.09876173287099,-1.9608524470752837,10.126640130772994
1.713723963553329e+18,0.05063480706173466,-0.04579648394054837,0.017932774662492757,-3.9958432222342837,-3.2995424256612,8.399675612959927
1.713723963562329e+18,0.13175732063709597,-0.08632346980382721,-0.0023446289174365,0.008202979561582481,-0.23014548175987903,8.09250602430278
1.713723963571329e+18,0.1180633271655029,-0.06419107431974877,0.0022822571912938724,1.621339830569531,2.4102814860157484,8.79117249805108
1.713723963581329e+18,0.04248649476212221,-0.013347583229639269,-0.016648375046654916,2.1333227419902943,4.22371548532234,9.85521788471084
1.713723963590329e+18,-0.06482007351819744,0.031415458102751107,-0.014686939125695223,1.5483362493014976,4.082507685909258,9.965134956394309
1.713723963600329e+18,-0.15375983738630217,0.04874090436773001,-0.03231382486662887,0.16809053710603972,2.2416310754890416,10.062040930354858
1.713723963610329e+18,-0.09979897748738142,-0.009164928560834264,-0.033120999072711876,-3.2447170274573947,-2.4640358949455536,9.278127348415763
1.713723963619329e+18,-0.06425539979202907,-0.06937765466805225,0.006809403779010107,-3.309008273975869,-4.3746422720343725,9.057183332156102
1.713723963628329e+18,0.01404309666198976,-0.08275476854592416,0.006220522323374178,0.8628598195174068,-1.4287904368419109,9.998108953352862
1.713723963638329e+18,0.021148467463844557,-0.02951374272033324,0.0016037802254933145,3.005973005043823,1.0851279632497017,11.269246944449451
1.713723963647329e+18,-0.012999447237871936,0.03594861838141547,-0.013760029274805168,2.4843760578984804,0.9727415585614149,11.944477331492626
1.713723963657329e+18,0.03161861100587416,0.033754642494676954,-0.025871328096836683,-1.7120191166559653,-2.936839168966693,10.631428600301108
1.713723963666329e+18,0.06552594022156197,-0.013654714935958824,0.0027283773651158288,-3.1281678665026504,-4.8573272053523215,8.945562981735096
1.713723963676329e+18,0.1618450324636433,-0.041921246749007574,0.005825587200304693,0.058393411650319554,-1.5873298215231801,8.276582932068957
1.713723963685329e+18,0.17293710286923963,-0.022063096105918254,-0.010512201271581223,1.5095942254329844,2.1563641033148593,8.61766194479954
1.713723963695329e+18,0.09460504810902393,0.014591241155099475,-0.019212608447716027,1.2531648352613216,4.564995641546264,9.464804796072073
1.713723963704329e+18,-0.03299491608109417,0.03386209540553821,-0.017872665267221807,0.357288648966284,5.13643487533867,9.972231899297562
1.713723963714329e+18,-0.15747023630037635,0.029310227940437937,-0.022568980703119017,-0.5346222304171679,3.5847567458139307,10.0034527462405
1.713723963723329e+18,-0.15973682324435082,-0.018067281610067012,-0.01787325612432561,-2.2340582578178156,-0.39344561220269847,9.347479884304056
1.713723963733329e+18,-0.10898990632564137,-0.07846038399932224,0.004604942122118259,-2.5412722257945406,-3.9285915094283683,8.811209350259254
1.713723963742329e+18,-0.04225280361616249,-0.07723270734786164,0.024717861639331505,0.7285085334056096,-2.53844387183347,9.619960437576191
1.713723963752329e+18,0.0034272954825624196,-0.016796073500246263,0.003999377819225815,3.319158965077443,0.1402598901116182,11.036280331265623
1.713723963761329e+18,-0.0013927402761011196,0.050841230513023986,0.00177697746665106,2.6725587621606945,0.12381181362459603,11.924103187432266
1.713723963771329e+18,0.05368094921730703,0.055461179357075924,-0.02029300416857896,-1.7063471028552035,-3.326984009100047,11.409335257296163
1.713723963780329e+18,0.09800305286826176,0.005305554843994376,0.012443369015973784,-3.8211193640402885,-5.175416344113535,9.787649537488598
1.713723963790329e+18,0.174458677000689,-0.04247649593833166,0.016299782631890657,-0.9084964781607576,-1.745556621709584,8.810340198542038
1.713723963799329e+18,0.19367312381393345,-0.03939746637086738,-0.001344247120503064,1.2033173644632027,1.9070447495630594,8.590676597132926
1.713723963808329e+18,0.12970241887233613,-0.0033437348794839433,-0.0014139721466395875,1.4748185398307738,3.9046947731601462,8.790636837972908
1.713723963818329e+18,0.01317710548198659,0.031821574443084956,-0.007571029582745676,1.0910588475528111,5.056682663802158,9.433822405423811
1.713723963827329e+18,-0.10494500844000806,0.04977578403577481,-0.004590445088569976,0.3716284814888975,4.39374340699781,9.52395916933359
1.713723963837329e+18,-0.1773745489618163,0.038285183502263925,0.0004206835563689746,-0.7629034043736206,2.023219536218904,9.566624455995838
1.713723963847329e+18,-0.13308786031956954,-0.024828402394235664,0.0032125694956126882,-3.0808327125572177,-2.210102013616199,9.046814997429163
1.713723963856329e+18,-0.08096797178351561,-0.07680351030015062,0.036854447007095045,-2.3359159401508536,-3.7271791084284884,8.896422925971592
1.713723963865329e+18,-0.017969780228487324,-0.07588733162286512,0.03205173730563365,1.8680179861833262,-1.1099476036440967,10.033444499506315
1.713723963875329e+18,-0.009666531163279157,-0.0015515164404218593,0.016414697325614458,3.82803704692735,0.8864752961810698,11.567191920220687
1.713723963884329e+18,-0.025758067297079457,0.0684291087539982,-0.004104994853384982,1.7904454307684596,-0.2211261614205544,12.355030647748208
1.713723963894329e+18,0.044617105819508604,0.03745089669948048,-0.014081489329792557,-3.602617066644803,-5.451213494536225,11.34872585920404
1.713723963903329e+18,0.10667117268711286,-0.03012079919635445,0.028925205815505416,-3.8979718279165723,-6.624790838708221,9.554607239964554
1.713723963912329e+18,0.21849262507278464,-0.05890017751885891,0.02018508042451059,0.636335330188175,-1.5180286259108244,8.763929920577976
1.713723963922329e+18,0.25642555621619306,-0.024598472745275053,0.0018243721148477811,2.5267740674847228,2.6284848674767187,8.337470586455462
1.713723963931329e+18,0.19001364463301748,0.03210754171382656,-0.011227457641601145,1.8816208535998982,4.6880923000280115,7.901798272204612
1.713723963941329e+18,0.026064852136810934,0.06035519134601582,0.0021846335867999906,0.09973090840404451,6.356343622616113,9.265141160400196
1.713723963950329e+18,-0.12632353092686938,0.0457871044783533,0.003880582282407084,-0.7349214275077094,6.12512095304069,9.949486213643722
1.713723963961329e+18,-0.2683190606952119,0.023677550257287183,0.03073077002602371,-0.4469214287893307,3.316873304656396,9.799947803898645
1.713723963969329e+18,-0.2617070931154492,-0.007226647724056566,0.0016597268397564743,-1.6010612921936753,-1.1858023150796588,9.956579339491356
1.713723963979329e+18,-0.13220479077205347,-0.07827012124607746,0.0302456195309114,-2.9870843470401107,-6.35808905367381,8.561622038105916
1.713723963988329e+18,-0.05934425488646564,-0.08479667289154631,0.05483836334744543,0.8412812859394506,-4.53822291242211,9.308780652878822
1.713723963998329e+18,0.057471712652670086,-0.008897594353776364,0.011079938918751888,4.74402103920921,0.17747706869451635,11.213101214443437
1.713723964007329e+18,0.0007578724798268559,0.10341599750573788,0.010421872753654362,3.8642685727082764,1.2742252542208652,12.217932086211562
1.713723964017329e+18,0.01130295236265648,0.12675190707142434,-0.023725466552330102,-1.5370540749220345,-1.8385567120089354,13.212419321453128
1.713723964026329e+18,0.10293220468435561,0.026570576622015143,-0.002813332924702355,-6.398449024389212,-7.254331765578572,10.268897727285733
1.713723964036329e+18,0.15962652070151698,-0.05376017585940735,0.045118416289954735,-2.8997303937580297,-4.644735753202419,8.395733833114788
1.713723964045329e+18,0.3069137104849921,-0.08590114863715646,-0.00421243806239278,1.6522141644016635,1.1324848928232314,7.810220159370941
1.713723964055329e+18,0.2199598910286533,-0.03471506681165459,0.008789477025185496,1.9116366103696831,4.075445208181988,7.806183134010773
1.713723964064329e+18,0.10540889590338412,0.001706148843277832,-0.017539864879409034,1.2116629468118565,6.6054825462568,9.218686412458645
1.713723964074329e+18,-0.07745796296778837,0.028322522139062407,0.011884064086597625,0.4777553390570203,6.740843169561029,9.472508395583471
1.713723964083329e+18,-0.2231448590005802,0.03130736346349079,-0.005823299222984893,0.35574637656795705,4.812029265619162,9.474389165573243
1.713723964093329e+18,-0.2869310296370114,0.04370900095908958,0.01805224396644897,0.7588728725435449,1.6852488793999212,9.038081444106052
1.713723964102329e+18,-0.2046861063870372,0.016240296516266274,-0.015977401771377846,-1.5892958605070115,-3.0985927150091244,9.069137085630299
1.713723964112329e+18,-0.10005695884209115,-0.03640248709238694,0.024267036499275238,-3.1042789617438125,-6.429885340851163,9.642738779833342
1.713723964121329e+18,-0.02220306216583089,-0.04281430002719458,0.036642112119320044,0.8347807599527807,-2.951559953490279,11.830891553713329
1.713723964130329e+18,0.01884390527565364,0.005091718448790307,0.002656221162345887,3.243541497402443,0.20864284021896315,13.412927111640403
1.713723964141329e+18,0.06679439752165102,0.023349597438342157,-0.0202197969708509,-0.67030308005794,-3.7652656531550948,11.840676858271568
1.713723964149329e+18,0.11748534669629557,-0.010655367320989848,0.0013690081754960028,-3.0660191278108346,-6.795034380722733,9.723096062268109
1.713723964159329e+18,0.21697949899750152,-0.033528148456237146,0.018959530824602465,-0.1186416096313105,-3.014663896452762,8.889689461549919
1.713723964168329e+18,0.29657759817267193,-0.01313289298972606,-0.00947762637213213,2.5084296782569715,1.7072985918210466,8.410899866089201
1.713723964178329e+18,0.24769283967945266,0.047590587241989765,-0.011925660476856897,1.8249018580828256,4.2228449865232145,7.347955173682562
1.713723964187329e+18,0.09864137941103082,0.06882899174971742,-0.011880696110619834,0.04930544996142755,6.7903509747836654,8.551257970608642
1.713723964197329e+18,-0.0766422686430483,0.04914076715588847,-0.005634078469855055,-1.195583930023676,7.425898092591773,9.68710536227054
1.713723964206329e+18,-0.23621891411101198,0.016827680487766897,0.013601176459357895,-1.2075167340627246,5.350952030153635,9.63282655968703
1.713723964216329e+18,-0.3124190879968814,-0.013544385437690465,0.00046604411897896664,-0.6874681036059488,1.5242712244373207,9.81554181595297
1.713723964225329e+18,-0.20644562509332387,-0.07620195896261414,-0.006028382114354325,-2.820948400954841,-4.725735423947596,9.087932245571018
1.713723964235329e+18,-0.12468555993985707,-0.11007248034274036,0.03957081170874804,-1.473206227859226,-6.821067900767483,9.751918306823052
1.713723964244329e+18,-0.004372816616650785,-0.062478804849966124,0.017587521526566417,4.017018797916748,-2.5496436680700048,11.67512552391103
1.713723964253329e+18,0.021863687579881982,0.04822863690346697,0.0011419428459930386,4.821904071243627,-0.4393404695780334,12.853267313619217
1.713723964263329e+18,0.09692071870964031,0.10478632214657715,-0.03831410944960959,-0.3489695962006652,-3.6779942113978192,12.20296549027294
1.713723964273329e+18,0.16313528206570752,0.06062439189722662,0.012832866481844667,-4.3070894458783915,-6.7117308497310155,9.534425217902234
1.713723964282329e+18,0.24615212403724185,0.002302695977415961,0.023791513307489333,-1.9180175044309435,-2.485056011947628,8.655525777584693
1.713723964292329e+18,0.29100530453916124,-0.0229037667249717,0.012579056427650014,0.580498069979713,2.7637773192846637,8.323024678634273
1.713723964301329e+18,0.21511813886900022,-0.004395168703412059,0.005899212293009929,0.8159076936424494,5.244303852739517,7.64614437896248
1.713723964311329e+18,0.05003553964672439,0.007316375104826618,0.006905358237010382,0.3235533382546571,7.039702784494917,8.187884859511172
1.713723964320329e+18,-0.11000188954371402,0.012400919445517116,0.010656410470390227,0.16718315868700923,7.1822963354352325,9.07469521742685
1.713723964329329e+18,-0.2563113515803589,0.016395728198313822,0.010808686147070487,0.37908005782332893,5.117386498974401,9.544413432113982
1.713723964339329e+18,-0.32924819016085405,0.02332070503514105,0.011219345877764367,0.7040124505757819,1.683586306867936,9.935921207964439
1.713723964348329e+18,-0.21974795424388638,-0.019578710846931684,-0.009091708846555156,-2.493836445281692,-4.779275099803351,9.601991189759337
1.713723964358329e+18,-0.118449587905154,-0.07484386119993552,0.036741609925138,-3.150699444353441,-8.286866599644238,9.98736169812493
1.713723964368329e+18,0.0135098277623519,-0.0558202821137938,0.02901335539343404,2.9197663556835347,-3.484264077860429,11.9462663531701
1.713723964377329e+18,0.05495285722321947,0.0425886584832236,0.008216392837365265,5.0880895667903845,0.1543126105253305,12.54779236007289
1.713723964386329e+18,0.06505256487204099,0.1258190341759536,-0.022619075021954232,1.832828358362574,-0.9127498728514836,11.82402504719729
1.713723964396329e+18,0.13918512698692315,0.1050523936868171,-0.022645495441721387,-3.595894439908998,-4.575758897535205,9.509935280483374
1.713723964405329e+18,0.1694575111210291,0.03770819771638975,0.017763664814376585,-3.9343510810038618,-3.237084417011556,8.515015080865757
1.713723964414329e+18,0.23958988094553355,-0.026789016560309978,0.009246340591601468,-0.7467739793671974,1.5775581099685954,8.28934118200128
1.713723964425329e+18,0.16211779489994374,-0.04057946914794426,0.010727328041430133,0.354880327617626,4.651325464966398,8.11539565120129
1.713723964433329e+18,0.04524067194126399,-0.030729670203685673,-0.005005071112284182,0.8715691801962451,6.081128525628007,8.78805798288944
1.713723964443329e+18,-0.11566196643161163,-0.004648092525988951,0.00434146634222112,0.9349380123211317,5.820466047097085,9.368021489449701
1.713723964453329e+18,-0.23767917829972035,0.019971117501444344,-0.00623390371013803,1.090847871090818,3.797848144077847,9.646370253404697
1.713723964462329e+18,-0.2699212465490835,0.03489282068209007,0.0006304949535434917,0.3808806442607582,0.5694382083772663,10.063936834371287
1.713723964472329e+18,-0.15223502252623705,-0.011075552776035977,-0.01873040473647947,-2.849929538645106,-5.037449678743464,9.856221650469061
1.713723964481329e+18,-0.0773951827295303,-0.05286507470256217,0.030782435095813507,-2.1699970931298003,-6.664860575655978,10.041792863699971
1.713723964490329e+18,0.0325533449682681,-0.03699562452117077,0.014651321975337686,2.7517498796937874,-2.309702264095812,11.31726274528806
1.713723964500329e+18,0.04665128584983154,0.048989117761013695,0.0012926787058274475,3.7990448708484292,0.21683984683144042,11.84332107175705
1.713723964509329e+18,0.06820740321041248,0.09208638423203955,-0.029736144445878,0.41887059469459176,-1.469736388245499,11.478664774441535
1.713723964519329e+18,0.12219863669729841,0.05204433230356123,-0.01691616603225603,-3.9844021026315937,-4.595914780564765,9.717675730847274
1.713723964528329e+18,0.17321086248106793,-0.015221011171494577,0.01089731936459428,-2.9934017187450546,-2.4666180725113644,8.600560500571467
1.713723964538329e+18,0.2176623141984156,-0.056665053385839645,-0.005686733951329905,0.33343036139044246,2.090236411986654,8.408676231973791
1.713723964547329e+18,0.16194966715120482,-0.03923375991065006,-0.010004811015373857,1.2293335733498583,4.397682362588106,8.343481488850365
1.713723964557329e+18,0.042127686561032066,-0.003577419231183009,-0.01925963427438444,1.2731504486829823,5.790050565066485,8.801474857654776
1.713723964566329e+18,-0.09141702747321187,0.02532915997230045,-0.008113662481674347,0.8826490375227203,5.482113942100159,9.269296555605994
1.713723964576329e+18,-0.2055286996323331,0.04591446796000305,-0.007660959224040485,0.5240771087682006,3.6419448287493994,9.382377543511858
1.713723964585329e+18,-0.23380624154494087,0.04273258980583294,0.00045663671210987395,-0.5465674867166803,0.7508194828422786,9.501596038780391
1.713723964595329e+18,-0.15080535221886965,-0.015688112565753247,-0.006660321929920615,-3.606580333910422,-3.9991308733630273,9.417277074789808
1.713723964604329e+18,-0.08826919779727918,-0.06975373571948199,0.040940362527471366,-2.6034627290489554,-4.7749467365823035,10.130908805161074
1.713723964614329e+18,-0.0140916887113918,-0.05836295341680509,0.032195272447889244,2.3149901799426718,-0.9642541026559451,11.86526737087244
1.713723964623329e+18,-0.0025829223100435244,0.018290107668751245,0.025882146946586332,3.8016974916257342,0.2195548220084816,12.310521042777344
1.7137239646341468e+18,0.0534260350223935,0.06654852900632187,-0.0012903398286214108,-0.13085639359037282,-3.5225816506962575,11.296052719957057
1.713723964643147e+18,0.12670333937311734,0.03602471153179816,0.028067935176301573,-3.7229017520161114,-6.58684101025343,9.51960315088117
1.713723964653147e+18,0.22258798585550427,-0.0060619204955131125,0.05188208154718297,-1.5399092949275621,-2.7792048681654546,8.610888243800945
1.7137239646621468e+18,0.2697106269889545,-0.011800988220349105,0.03337144538054629,0.9623938225785399,2.332748698202567,8.160503757130888
1.713723964671147e+18,0.18202333292024664,0.020042076093084064,0.038969960886219436,0.8156512895865217,5.256930082708735,7.978341380761618
1.713723964681147e+18,0.02223917460899608,0.03776784463360855,0.03271240418985522,0.06580196028933098,7.387299809445855,8.814852458358194
1.713723964691147e+18,-0.1626775652007484,0.034775559172825064,0.04421530144045855,-0.5030290698726582,7.003469996775451,9.379599142208939
1.713723964700147e+18,-0.28785910145780963,0.018811612466020162,0.04567783418761792,-0.6228642037538289,4.378817382556013,9.741886717079444
1.713723964709147e+18,-0.2930211278999479,-0.019268559424524934,0.04975511169877251,-1.8670177572607103,-0.5791090272633787,9.880139237706858
1.713723964719147e+18,-0.1716629363804591,-0.09752249720673331,0.059479610235058024,-3.851304495643656,-6.714154218736205,9.24034168479966
1.713723964728147e+18,-0.09246648747988055,-0.10679347905777177,0.1050117123684375,0.11675902759556755,-5.92490813511603,10.124916020307248
1.7137239647381468e+18,0.02292086414669483,-0.0268749010582658,0.0625002829093051,5.044698832250384,-0.9914904526466705,12.26445335071373
1.713723964747147e+18,0.020924005794502012,0.08611163480154492,0.05499269841224349,3.9704434166262645,-0.32885617540462886,12.768010994096876
1.713723964757147e+18,0.10272008417930145,0.09649036653264473,0.01659250365730591,-1.6249407103053097,-4.498432490484525,11.220110594001405
1.7137239647661468e+18,0.15852906432755706,0.038717330942567775,0.06637678806091725,-4.2283139625086195,-6.1790780941406735,8.843463427536635
1.713723964776147e+18,0.2507842356460064,-0.015512723294820476,0.061095014329677906,-1.144612366794552,-1.0693341219675443,8.377661511103204
1.713723964785147e+18,0.25991726011200234,-0.022463855012291895,0.05212459885433134,0.7448893106272608,3.492901589405657,8.362853176904306
1.713723964795147e+18,0.151861158610039,0.005851822797394111,0.05177271557469078,0.8768463495048849,5.786556593302229,8.07704320958824
1.713723964805147e+18,-0.030323369059706985,0.026999666401088605,0.05599915071422101,0.33465581322794613,6.96153810136632,9.03406254194263
1.713723964813147e+18,-0.17064855144040736,0.03124102413353734,0.06329021259824724,-0.011187272590572617,6.162818185379376,9.629798766525106
1.713723964823147e+18,-0.29564440843009276,0.031069236411641964,0.07393918669899133,0.055668823623007,3.2388062984562245,9.717981848398376
1.713723964833147e+18,-0.25808503946897127,-0.002007837003174876,0.05709472032904448,-1.596644948402385,-1.7370573998184817,10.14511944643625
1.7137239648421468e+18,-0.13279059933306292,-0.08002869332204465,0.06360640798626793,-4.044064183669205,-7.2630403282576586,9.389106966403851
1.713723964851147e+18,-0.06379066255749266,-0.10162468117469987,0.09735583863172498,-0.09280572223498372,-5.3436937449607536,10.699395533477055
1.713723964861147e+18,0.050815755605000054,-0.044608275972089835,0.038173619767885594,4.804348771476717,-0.4577093823818728,12.285678657614625
1.7137239648701468e+18,0.0069831049536182915,0.05333966127130099,0.02656119113422179,4.439135993069531,-0.42003085027552867,11.82720142009546
1.713723964880147e+18,0.09506625127440815,0.08584192223807321,-0.026727953647071173,0.392599325336994,-3.9999332574693254,10.511192382053679
1.7137239648901468e+18,0.16059352848935293,0.06420910318705927,0.007717468301041388,-2.5619629308062235,-5.361793206417247,8.21405633310841
1.713723964899147e+18,0.2685153998241794,0.015696846936279776,0.004015214769252812,-0.8528538070322046,-0.6324383682072865,7.720289923115504
1.713723964908147e+18,0.23927900144365472,0.004126336461584541,-0.013816537482487309,0.31369740316991357,4.1235841774246556,8.518338171056445
1.7137239649181468e+18,0.10471656314836993,0.0076014507126681355,-0.012468955750757753,0.2764663213181964,6.908901893109613,9.31195208221497
1.713723964927147e+18,-0.09114214401841206,0.00579428802009914,-0.014658915063014765,0.24002512841734303,7.31367343235737,10.030726978872123
1.713723964937147e+18,-0.25451730166545117,0.00778850478893893,-0.016533276491484405,0.41618072035142256,4.862754237513962,10.120549725559794
1.7137239649461468e+18,-0.288540561749027,0.004042965443798769,-0.007129739692101138,-0.696217415652244,-0.053314631832038425,9.919247159341191
1.713723964956147e+18,-0.13452275709263176,-0.06772932793608598,-0.027816630186608123,-3.601506083114665,-7.040399868495792,8.810439152344536
1.713723964965147e+18,-0.05344309327607426,-0.09234884198992577,0.042208655228488684,-1.0213675996669584,-6.86433297271146,9.42163984871295
1.713723964975147e+18,0.08759785843175748,-0.04819121610727324,-0.023829984557399847,4.0093507751826625,-0.9363374604164081,11.440403375244852
1.713723964984147e+18,0.04706826727179986,0.05651658516397903,-0.010977245552212212,4.388707435948985,1.2774815585931454,12.181767401243711
1.7137239649941468e+18,0.021170092208420404,0.13260984047956653,-0.04684162874872593,2.07931733441187,0.5063755780099339,12.102472556912858
1.713723965003147e+18,0.09553471977684269,0.11366945998707993,-0.036348335272572085,-3.0132072226798856,-3.9410346449235285,9.179455165577677
1.713723965012147e+18,0.1234602658765007,0.05065915031058674,0.008477071343567373,-4.074772952447856,-4.048785095895914,7.5918229054739435
1.7137239650221468e+18,0.21877460849355823,-0.01607489792624204,0.003164097143059298,-1.4081782067176476,0.9284119122918871,7.839323611944312
1.713723965032147e+18,0.13736659995006886,-0.029916225671498927,0.01647636167785244,-0.45196462908076673,4.710436809379165,9.09535704769644
1.713723965041147e+18,0.008567862080864531,-0.019280551452057537,-0.00272326282777256,0.5391125127962944,6.5853009739123305,10.252925580966323
1.7137239650501468e+18,-0.14809007004857735,0.008893550501994512,0.012835834333802055,0.9002014112575655,5.302125015506634,9.778156323374024
1.713723965060147e+18,-0.2446280937245509,0.028075207124662924,-0.007078823831901343,0.6850017825629307,2.1971468489375345,9.640160411880633
1.713723965069147e+18,-0.14961683417325328,-0.009423476376132322,-0.005635984430082745,-2.7333247120093076,-3.679647832968798,8.914331254482535
1.713723965079147e+18,-0.07507840607578632,-0.06374155968876705,0.03561458181989733,-3.254438633890143,-6.104197476730685,8.98487428147199
1.713723965088147e+18,0.03649423161923118,-0.06756902583715964,0.027173818899229502,1.5216560159298986,-1.835881802534108,10.286314757381518
1.7137239650981468e+18,0.030032722767036772,0.002408635779095024,0.017389712756628813,3.6015495858879913,1.6514054033450407,11.997138679827339
1.713723965107147e+18,-0.022726615885339915,0.07056844157362725,-0.005988264289648862,3.165793884690237,1.7575761668011873,12.185064552661379
1.713723965117147e+18,0.0022926747818858817,0.07487275648715323,-0.010577754544398698,-0.875289433962727,-2.736773713072805,10.721626830415119
1.713723965127147e+18,0.07962421412306014,0.014242686611859842,0.0046326740228833044,-4.2377748327897455,-6.712827956695396,8.579906102894402
1.713723965135147e+18,0.16865669093314037,-0.02111137773920429,0.0328612502710402,-1.6311138276059236,-3.06140658437964,8.213230901896182
1.713723965145147e+18,0.2311231290577198,-0.029241976446845126,-0.006192489288384495,1.2294240946671466,2.5419372068769777,8.91121694342394
1.7137239651541468e+18,0.14530386978103046,0.008807964655451053,0.0025995961928333157,1.4907703581763714,5.262436920036118,9.13260773363859
1.713723965164147e+18,-0.025638895804723442,0.041506637421076485,-0.012603736361386947,0.8947478198316677,6.30051173286632,10.00447264963852
1.713723965173147e+18,-0.1666379227045861,0.051489414694720306,-0.007209539116719952,0.17180533879213264,4.8370371860166514,9.903399614378802
1.713723965184147e+18,-0.23876896951278778,0.03926773637040464,0.008221214006026824,-0.7801844029186743,1.234465852184591,9.951902291020318
1.713723965192147e+18,-0.13500685218115993,-0.022993522128452647,-0.011010290351694964,-3.6597196399501626,-4.029526343227517,8.978218269220013
1.7137239652021468e+18,-0.08023093327266273,-0.0804214360475768,0.051648337322772506,-2.8015936898940113,-5.28236381337552,8.879529235473965
1.713723965211147e+18,0.024982149758373002,-0.07742640536548737,0.014051267231755826,2.0645417177990057,-1.2230269974535581,10.429101699250687
1.713723965221147e+18,0.0027071967024720274,0.003119188394381207,0.017948642903414424,3.5454657545971298,1.1865094622628465,11.541378626933904
1.7137239652301468e+18,-0.038893486258238,0.06291707527937755,-0.01360694835377851,2.7393543505688283,0.9106144392955069,12.448770170976985
1.713723965240147e+18,0.02672327161173335,0.0629003894139687,-0.018072488777815626,-1.390374182050312,-3.4645136344578042,10.626558327153447
1.713723965249147e+18,0.07735967650086138,0.0334001875793986,0.015326875717539292,-3.0611125995863544,-5.659247643632528,8.48587535213408
1.713723965259147e+18,0.20122817935566983,0.004423953608040604,0.01612233451203554,-0.27682717754125635,-1.9118675616155327,7.874548660963094
1.713723965268147e+18,0.2002892474166553,0.012925918857039276,0.009510703853579933,0.9259088875826988,2.6293277806223023,8.618952213627061
1.7137239652781468e+18,0.09837612566056474,0.036075552285583255,0.00214834419898125,0.7383256464125652,5.644178228191695,9.716645792568128
1.713723965287147e+18,-0.06154743014780796,0.04827217860391066,0.001990739492815762,0.04059485136683868,6.379385245898914,9.954123665258493
1.713723965297147e+18,-0.20774156711389258,0.03705517903734672,-0.004224021707202857,-0.5739916565741277,4.34876005309352,9.645606447706871
1.7137239653061468e+18,-0.21258374454625473,-0.0038715387433680367,0.003957879585931033,-2.0138032240924577,-0.09908663698296438,9.202085758513839
1.713723965316147e+18,-0.13037705844681297,-0.07231253148184116,0.008764563090119413,-3.788939930147359,-4.929860190447878,8.761569436854959
1.713723965325147e+18,-0.05223609299838214,-0.0957629510623679,0.038188473822695676,-0.8639047911920766,-3.9940179225354773,9.748866209517102
1.713723965335147e+18,0.01672836481265134,-0.05257292480549208,0.005975624632316713,3.2019038428910935,0.06166003351440129,11.442496572474415
1.713723965344147e+18,-0.009128867560962864,0.025141401138405097,0.00018437605875011652,3.56260815902649,1.0087912167592892,11.928906855550052
1.7137239653541468e+18,0.003511096754780128,0.06557930836830764,-0.027908065029810934,1.2711436463016288,-1.4061297756920785,11.489937327837776
1.713723965363147e+18,0.06241299349853797,0.04676560107608967,-0.003898341368109056,-2.3854197668202377,-5.5212458026630244,9.6236189805366
1.713723965372147e+18,0.13695407804679002,0.027674847700543407,0.028519013948814065,-1.5869300847200767,-4.071562745432421,8.430850897596171
1.7137239653821468e+18,0.21586080552472794,0.0246405882388497,0.005783923581157674,0.6837380127483323,1.0145043648193428,8.401539868642404
1.713723965391147e+18,0.16353709390338086,0.03441168127816116,0.011329297264954265,0.17382450235306984,4.3287908394379695,8.887611287755682
1.713723965401147e+18,0.01900771927154332,0.030211245946697593,-2.0933568529932656e-05,-0.4548023114377115,6.352868467333385,9.835224857702581
1.7137239654101468e+18,-0.1407242241371461,0.010045858117646621,0.0043733451563500465,-0.801379063939022,5.532119655645523,10.151958971336093
1.713723965420147e+18,-0.2362514722050343,-0.017787021867990457,0.002122813775180516,-0.46297441962229957,2.4205022966639484,9.912108382796026
1.713723965429147e+18,-0.1872073547463019,-0.045016680398340496,0.00807256425121892,-1.3802096229805376,-2.622534878955042,9.124429369033106
1.713723965439147e+18,-0.08698777644170005,-0.05525570800028816,0.0230324930627887,-1.3603788027426589,-5.70766043476837,8.680932362758954
1.713723965448147e+18,0.0014865175637648323,-0.024399253824352034,0.02672008591435821,1.8839088491192262,-2.8278799203373537,9.928980235050377
1.7137239654581468e+18,0.03740610630200206,0.03869440919240528,-0.004306828799963816,3.264906195748485,0.547092139088249,11.531564801212227
1.713723965467147e+18,0.003347100274805432,0.07756157975676961,-0.01600830260004652,1.3400619299151608,0.663834302712159,11.979327635128609
1.713723965477147e+18,0.03018721642909079,0.03760966061375568,-0.03166287418622237,-2.869922194544766,-2.854691702276326,11.14599308223671
1.7137239654861468e+18,0.07142357767964465,-0.020366782265957797,0.011684514117548526,-3.299025003538733,-4.581358326538075,9.384613300001943
1.713723965495147e+18,0.1505269947673532,-0.036195670807716115,0.00894399933938852,0.6201933435388773,-1.3160311408521634,8.601439775307778
1.7137239655061468e+18,0.18833993687330897,0.010286183430743875,-0.011458723038931473,2.0879671899458305,1.9628800012065284,8.165517658635096
1.7137239655141468e+18,0.13387703837268095,0.049868182513472095,-0.010540970340997909,1.3537614867763001,4.009898751597593,8.095425568155601
1.713723965524147e+18,-0.014054864115587817,0.0679470009483201,-0.011599070168225098,-0.08878472392464026,5.86776598887194,9.499502663196523
1.713723965533147e+18,-0.15731207311497947,0.050677614464679784,-0.013081999088910426,-1.2467954786024495,5.4382930937005565,10.34390978715243
1.713723965543147e+18,-0.2473162946595615,0.0014393607398759233,0.003812708367616711,-2.000777910228563,2.066115195562071,10.214640266753124
1.713723965553147e+18,-0.1691274869393211,-0.07539091428960748,0.0050829360945052375,-3.5449557578476574,-4.1796333572429925,9.169967424717921
1.7137239655621468e+18,-0.08947831310845278,-0.10161277213148856,0.04688983366652947,-1.4944582554711525,-5.986243481770828,8.796835669052978
1.713723965572147e+18,0.0321210086320362,-0.0558189174091313,0.018881535727256746,3.216904193513604,-1.6984407574596427,10.153159238999166
1.713723965581147e+18,0.035917408159928055,0.03631774338315562,0.001342593182218466,4.119820790039341,1.2882258695518563,11.51588149616097
1.713723965591147e+18,-0.009521554600118508,0.10327144222756383,-0.023884317584064698,2.294348679111562,1.4139640643719327,11.924332995455412
1.713723965600147e+18,0.004215750231200194,0.07407455849257993,-0.029974805533886303,-2.7018713654367175,-2.4347032526663495,11.13808991931514
1.713723965609147e+18,0.046025240477708375,-0.009863555418968259,0.005373748116660063,-4.381691925414953,-5.658872310498803,9.606652244696182
1.713723965619147e+18,0.13454590279016493,-0.03873257217643447,0.027046872942305306,0.055998072879713263,-2.443655823231902,9.075935981528927
1.713723965628147e+18,0.20327133906985487,-0.005926345187478589,-0.009171995733976509,2.2519811662614,1.249616208607536,8.575224290243941
1.7137239656381468e+18,0.14989216811281145,0.04867412781857625,-0.002893937515706561,1.7949118208714772,3.2433467206950835,7.790469866503861
1.713723965648147e+18,0.016156718386737868,0.07717195991941753,-0.008457905115963109,0.5388508484475651,5.504473701247131,9.254330050884432
1.713723965657147e+18,-0.11950453615418237,0.07099669051811762,-0.021687286418241435,-0.8357527035876033,5.794734466722831,10.07469194741252
1.7137239656661468e+18,-0.23078923904977755,0.03822818542213144,0.00031749256806342714,-1.724150201239372,3.62015119671063,9.823828286506748
1.713723965675147e+18,-0.2168770035003257,-0.034159293385750765,-0.011859763391767208,-3.588465716032299,-1.3272347306354015,9.681449117700849
1.713723965685147e+18,-0.1360380929961774,-0.10960748723617311,0.03001690087400894,-3.733903208615269,-5.709251071334613,9.332516675823326
1.7137239656941468e+18,-0.05479848377418625,-0.10542991488057651,0.036602035959386894,1.0984553372760326,-3.4313182874850225,10.428223966421502
1.713723965704147e+18,0.03435930220582671,-0.022291037016728465,-0.005081307519908877,4.499950798579816,-0.12445896385424986,10.940113587833428
1.713723965713147e+18,0.005093412448745702,0.06687756959833306,-0.00895593526617388,3.5739892183693196,0.2181066524103053,10.741820153260727
1.713723965723147e+18,0.02107198848212091,0.09637323934363905,-0.04024139773386783,-0.08184001009535721,-1.3668213604267265,11.357743719804407
1.713723965732147e+18,0.0639473214771269,0.04756430597913261,-0.011736985351416927,-3.340865823026867,-3.9390808235600243,10.090826644045055
1.7137239657421468e+18,0.10053923857418913,0.00362669636277414,0.023795478989071767,-1.6411799189194247,-2.052975604049024,9.355321154096194
1.713723965751147e+18,0.15532467764897867,-0.0055360685759387246,-0.01162900435448987,0.5576690446584032,1.0535385966850725,8.769656064964273
1.713723965761147e+18,0.10879860118221008,0.010925812879591705,0.002611514101483433,0.37584389462772394,2.5225025376648507,8.175745105244939
1.7137239657701468e+18,0.024977080063928278,0.014513652637929529,-0.01391446094015927,-0.09670108911373049,4.018853029695358,9.091091893428164
1.713723965780147e+18,-0.08093479876137204,0.013156010457048572,-0.015221829130076374,-0.5772136413671697,4.253340738964764,9.490823224143602
1.713723965789147e+18,-0.16532809182631616,-0.0009175821363245152,-0.010680919087236496,-0.9008544799771306,2.9084986634139227,9.485413168624639
1.713723965799147e+18,-0.1866096168268561,-0.02543707729067217,-0.010596182388274316,-1.2336510732060018,0.42900153599520063,9.731633605789714
1.713723965808147e+18,-0.12584533987611754,-0.06302901769181529,-0.00634581466946834,-2.1887667468467464,-2.9376304589360074,9.663049493882298
1.7137239658181468e+18,-0.08727176563291603,-0.08072336600703225,0.015137369402325193,-0.971407482422737,-3.37423918898181,10.506499693932488
1.713723965827147e+18,-0.03615092985876961,-0.05938043914273026,0.0022358192879959864,2.0875792855638085,-1.1834161500855276,11.658245657721007
1.713723965837147e+18,-0.0025157230206000803,-0.01696503824698173,-0.022290653571687365,2.2724040257539144,-1.9427488419962018,12.048477320140162
1.7137239658461468e+18,0.05736801847227264,0.007266050527724417,-0.015279149653872379,0.5071519898791447,-4.530836334239063,11.070605043846344
1.713723965855147e+18,0.11362811440425316,0.03693604272995678,0.0037316322935600295,1.10498315261165,-3.872569618232916,9.716949770072004
1.713723965865147e+18,0.20887343798430563,0.08319542554283653,-0.017113872764775814,1.9687214009283824,-1.0159399280585752,8.548838419035311
1.7137239658741468e+18,0.214388372411419,0.1115642697404153,-0.017868873714129353,0.15623777892566199,1.3787116672883033,7.903018328388814
1.713723965885147e+18,0.1424351471960225,0.07833625455133678,-0.016234195512522677,-2.154773791610786,4.1718232280212275,8.528205456062528
1.713723965893147e+18,0.029015787636111165,0.019683252790910055,-0.010822341292382704,-3.1304897801091847,5.676634360457842,9.179797214337725
1.713723965903147e+18,-0.11772257650864999,-0.04893641762544283,-0.007324628173877155,-2.6685149691590215,5.378250362202437,9.829838562951592
1.713723965913147e+18,-0.22601297572626913,-0.08756002641925613,-8.7897462189727e-05,-1.0482671297009645,3.0702404143323343,9.629076544773865
1.7137239659221468e+18,-0.23528308276269724,-0.0831686841848819,0.00400610376328308,0.30879341722165965,0.07104893839772035,9.287150904696617
1.713723965931147e+18,-0.15434236731414183,-0.07232262704114864,-0.0038997233070728323,0.141261627905656,-3.4244386674598166,9.22683059152227
1.713723965941147e+18,-0.07563000013322475,-0.04591800747864505,0.006246095811477877,0.295197104165203,-4.581829256197667,10.290354469950868
1.7137239659501468e+18,-0.012404779881350057,-0.011864576338327635,-0.004605222365784209,1.7808447004908863,-2.2337612216110956,12.154129847145205
1.713723965960147e+18,0.03776975224222471,0.012400321540928655,-0.024667728245239346,1.262509903296939,-1.9129198779745369,12.588401004843357
1.7137239659701468e+18,0.0755278585487977,0.010563022056443947,-0.00983803618205727,-0.5118609317841267,-4.036675845857019,11.062769848049708
1.713723965979147e+18,0.11800003641265779,0.022899243272019212,0.012188339605970197,0.6521414781804358,-3.352938049057886,9.768274030825722
1.713723965988147e+18,0.2018142676491118,0.06748271069353817,-0.006012688803447572,2.1393606230018847,-0.8446560760063717,8.55172646685152
1.713723965997147e+18,0.218619496976607,0.105884552983009,-0.01230041290865021,0.470521859892455,1.1942872022638817,7.529183903080591
1.713723966007147e+18,0.16345793709073594,0.08282502869886386,-0.011043247974913541,-2.0866953325163466,3.739859412765425,7.730154042947838
1.713723966016147e+18,0.05233392089123101,0.01974249071276031,-0.0075896561156815045,-3.2685721160429866,5.7984708822719835,8.638314030228068
1.713723966027147e+18,-0.1190796819103834,-0.060119190179284035,-0.0034949225283129265,-2.806720577114909,6.113637457601824,9.566986483446279
1.713723966036147e+18,-0.23526512204773853,-0.09636370530930143,0.005547829082857161,-1.1101629925675365,4.196888149125159,9.62528777787674
1.713723966045147e+18,-0.2843497844392375,-0.08778887759172822,0.015353611897416682,0.9633248597860624,1.2036141151325614,9.672179493952504
1.713723966055147e+18,-0.18970157315557404,-0.07333201315253468,-0.002858693646114243,0.39206772377430615,-3.5726452288165182,10.102087122030413
1.713723966064147e+18,-0.08686860637232796,-0.06779354133808979,0.011426773776369822,-1.2361128617767734,-7.260631008125298,10.853724481029104
1.7137239660741468e+18,0.008322845502328436,-0.04541139942976521,0.019553192450052534,1.1388887301209827,-4.802597976214452,12.161984699964254
1.713723966083147e+18,0.07009888002288493,0.006829937279949388,-0.009389411555632707,3.8569237835413723,-1.2495492793152065,12.377183415687785
1.713723966092147e+18,0.10585266083662995,0.06154735436878085,-0.027612493042134825,2.4781628951372676,-1.795387594247058,11.056605767970453
1.7137239661021468e+18,0.14331955246234104,0.08930213365554741,-0.01585766944252814,-0.10897359026055037,-3.1268133070698205,9.17581776492644
1.713723966111147e+18,0.1869665081820006,0.08811899730581206,-0.004402507169365911,-0.7156516287303373,-1.3610931593258824,8.350499764547878
1.713723966121147e+18,0.20511023773683,0.06729753886445852,-0.015029723359388717,-1.284280057248841,1.5648248252405161,8.208092268904746
1.7137239661301468e+18,0.15306010005623533,0.024015441891435587,-0.002662856590178497,-2.4392494040769366,3.7426351958846213,8.121436943786463
1.713723966140147e+18,0.03346498626803503,-0.03444213510729224,0.00018169181638709756,-2.470757254131729,5.4765807979829395,8.718874394009868
1.713723966149147e+18,-0.09498548275058927,-0.06991082394651753,0.0023780422434125092,-1.3427744175610419,5.566115931422372,9.390331388478423
1.7137239661581468e+18,-0.20246815190671238,-0.07369972896911732,0.006562330805461904,0.27450818747982253,3.873703733788555,9.53727855729814
1.713723966168147e+18,-0.24918933385652245,-0.044978020388133456,0.005964203052794175,1.5795023241368018,1.1353877287707645,9.829826393660085
1.7137239661781468e+18,-0.16590129286070174,-0.03940030571605403,-0.00835118703840907,-0.5998282727379747,-3.6255303401218377,10.732803785283235
1.713723966187147e+18,-0.060574276175134285,-0.06329552996225621,0.006698921996282363,-2.769181184169511,-7.447049957509599,11.27512734753861
1.713723966197147e+18,0.031793960882484464,-0.062238860816172796,0.027171270497726788,0.7305906027465143,-4.738603890744721,11.75709763434934
1.7137239662061468e+18,0.09274948467186606,-0.008123791652263344,-0.007755604956043032,4.147870121134684,-1.0735924748248886,11.469576095892243
1.713723966216147e+18,0.10296013757268928,0.07932737385568081,-0.010345018052226007,3.617909500480586,-0.7070961013860665,10.094646440212012
1.713723966225147e+18,0.1390871399802706,0.12245597777034656,-0.022741695028579527,0.8035161908265419,-1.4529351984888725,8.96027586926333
1.7137239662341468e+18,0.16602587262284302,0.12006896386060142,-0.005780875562333967,-2.085006148584657,-0.9985686313607953,8.213929951090497
1.713723966244147e+18,0.17176901958032686,0.05183490904704775,0.00018881860447660928,-3.3606535987248565,1.772949499045939,8.16963205153594
1.7137239662541468e+18,0.10034887472905617,-0.038479075821279324,0.011420109774024058,-3.2538393970881594,4.271892090849247,8.613659611502305
1.713723966263147e+18,-0.016770356507888166,-0.09250462120765167,0.011249820671310718,-1.8734599869420157,5.481475445597762,9.301827975159265
1.713723966272147e+18,-0.14420057175118467,-0.10469510396631286,0.009452803486466533,0.21061692818795522,4.923524399516844,9.820647831579276
1.7137239662821468e+18,-0.23533617876267718,-0.06538646919337876,0.007662872750723412,2.201850534627613,2.4293252280665967,9.775668445373283
1.713723966292147e+18,-0.20860081265558436,-0.013217857313817787,-0.00016936023042441432,2.116253323516133,-1.2775712516572968,10.020524668274712
1.713723966301147e+18,-0.07872893791379713,-0.011881317611663451,-0.018578534338012584,-1.6026444864418727,-6.485447289607808,9.89232076300344
1.7137239663101468e+18,-0.002857665672482342,-0.028857204794928166,0.024084619920086297,-2.06986799638721,-6.6326468655246895,10.521523805496772
1.713723966320147e+18,0.0885870619049986,-0.02522313100168329,0.0012618111488879023,1.6095585500315222,-1.1085452200274228,11.89790939621792
1.713723966329147e+18,0.07877208688382278,0.01773431396673779,-0.015610976316070137,2.6710001105730123,1.256604365743692,11.363765968880214
1.713723966339147e+18,0.05172784596709481,0.06404697450087941,-0.02141942945784448,1.861486477405657,0.5383489625526316,9.620038642963102
1.713723966349147e+18,0.052719338015170855,0.07976236134210463,-0.009634565436469992,-0.011207799321330349,-0.7412220863509368,8.558245822450793
1.7137239663581468e+18,0.07710340604875737,0.06661881753941007,-0.009897155272842436,-1.6236951248342355,-0.6731325567046508,8.420629799829817
1.713723966367147e+18,0.08701623222289148,0.031262035803427166,0.00932103336663757,-2.2264690215469414,1.0459855323965226,8.55162504402954
1.713723966376147e+18,0.05000364785644969,-0.022450715678741708,-0.0017426439944453497,-2.329020475878427,2.839237654922449,9.232853685273364
1.7137239663861468e+18,-0.03952526166433652,-0.06901910540132752,0.007620749797758453,-1.6379040270963405,3.4961765934675477,9.903084582593129
1.713723966395147e+18,-0.1237775283895608,-0.0878364626909176,0.003298841944534646,-0.23153480378164432,2.7367317383206085,10.221157558983968
1.7137239664061468e+18,-0.16032900206966033,-0.06484570717660768,0.0034564901660468473,1.541992642320294,0.6354971070695458,9.67396083781975
1.713723966415147e+18,-0.11155126598288759,-0.030103861901568277,-0.0012098461804980888,1.4458591481809344,-2.3362330918606773,9.466685812319303
1.713723966424147e+18,-0.023432361963846893,-0.0022016809739718937,-0.010636414986609562,0.023899003444031848,-4.535427658322585,9.805807291902145
1.7137239664341468e+18,0.037134497393586485,0.02257375675443903,0.004364459875716899,0.35760351804756213,-2.4813749242270005,10.807306414962289
1.713723966443147e+18,0.06304352160581467,0.030131408684935978,-0.017375217494056253,0.8351586315132374,0.4671708305605128,11.252806679490616
1.713723966453147e+18,0.030493381707033366,0.020254281230079343,-0.01938000777582385,-0.44943476882122646,0.5261074238650549,10.879508008310983
1.7137239664621468e+18,0.030584051035731707,-0.015246735595766541,-0.007996053473948253,-1.760914501667363,-1.2362702799759093,10.029212882149816
1.713723966471147e+18,0.03680029080039496,-0.0323264805644583,0.014893347112352035,-0.5806132564350919,-1.407420741878233,9.143837640372706
1.713723966481147e+18,0.08334832717434686,-0.014631527957292736,-0.0001821949889195031,1.2068410763510937,-0.04819355728755377,8.675793965052014
1.7137239664901468e+18,0.07973020723007518,0.02248354991935321,-0.0024032392652590046,1.0010404990724342,1.0592168624155673,8.534721567793238
1.713723966500147e+18,0.03417913080059503,0.03619491127243705,-0.005641130136500712,0.01932635286379307,2.416878386836794,9.311414228757066
1.713723966509147e+18,-0.03272441908000546,0.02649684175368517,-0.007333837394506873,-0.8463359873652196,2.9611141129307605,9.891662624624836
1.7137239665181468e+18,-0.09738862380105281,0.0009962935925053068,-0.001240267294127598,-1.2300495382857408,2.2191126080787997,10.04542275177866
1.713723966528147e+18,-0.10338571935018609,-0.038325140001615854,0.0038357940135400207,-1.4674209587515166,-0.15300765247249562,9.556391508717695
1.713723966537147e+18,-0.0788973956033967,-0.05980046301796367,0.015908960084475558,-0.8871839102864599,-2.0401943380075873,9.100730747637897
1.713723966547147e+18,-0.03767418305148536,-0.03986644742836616,0.013642601718415928,0.9841010113483621,-1.255094539038231,9.708189973812104
1.713723966556147e+18,-0.013781457299987443,-0.0003424874694579438,-0.004305648870618394,1.7424465158167688,0.03992400328882123,10.82854008175622
1.7137239665661468e+18,0.0038585856054948117,0.005669471989090139,-0.01937546712154469,-0.24323168356140235,-1.141304917051983,11.595109904071933
1.713723966576147e+18,0.022216458473819402,-0.031968677926939956,-0.006341019753718587,-1.9287756571061414,-3.3511200044811034,11.222091370830542
1.713723966585147e+18,0.0527707847136287,-0.0449554347118029,0.015496539100676771,0.17940726180142375,-2.854422629289332,10.37753759973803
1.713723966595147e+18,0.12624181672413104,0.0005309068078931871,-0.004376793454484315,2.94697572916827,-1.1130797728337538,9.041919224820642
1.713723966604147e+18,0.1505506396792718,0.07714974024873493,-0.01585913448772859,2.581070969404725,0.03650870000605268,8.138245030022023
1.713723966613147e+18,0.1400801392588475,0.11071217992651212,-0.022344305156358553,0.324551488275178,1.8714589848577097,8.298446587120221
1.713723966623147e+18,0.07396009824043262,0.08177108764333553,-0.017496459710926417,-2.000923055078499,3.7319449481321176,8.886132008699407
1.713723966632147e+18,-0.03268329630780108,0.01680585996654292,-0.009973898841699998,-3.082606769995175,4.531061706057476,9.703649329426616
1.7137239666421468e+18,-0.14229735330977927,-0.05481495658745653,0.0010780227113550234,-2.5492582950208913,3.5371393255642416,9.959960586206972
1.713723966651147e+18,-0.1926888995511263,-0.0902386444960422,0.013060788653610385,-0.780604655049739,1.2402026239545765,9.717175800374514
1.713723966661147e+18,-0.13963640921428477,-0.09184489212853131,0.003396965333977566,0.21198937594415762,-2.398336132560015,9.337652634397067
1.713723966671147e+18,-0.06682961526910008,-0.05680180066874716,0.012783799772456101,0.8360031779153423,-4.345359466214086,9.846405298297931
1.713723966680147e+18,0.0009928852372225378,-0.001036344182744801,0.0047642679038917375,2.4650369187426797,-2.430340671188116,11.12579362939988
1.713723966689147e+18,0.04374613919360689,0.04993436575457093,-0.015001768838901244,2.4613490477176247,-0.8133019287813165,11.876358417160095
1.713723966699147e+18,0.07531904553427106,0.056541327931383424,-0.030415002382153892,-0.3376465065868305,-2.306458183608421,11.270678715038443
1.713723966708147e+18,0.09054417772847156,0.03481222683951705,0.002474004734749922,-1.5309124786237343,-3.0141652261105825,9.998900352923439
1.713723966717147e+18,0.13419695276362797,0.019773820770313408,0.0003028725607143311,0.006172494967459705,-1.1406814652003434,9.05361528570599
1.713723966727147e+18,0.15595569992349415,0.03701332868038802,-0.01525501548505063,0.4987133841594686,0.9511331136244798,8.471301610482719
1.713723966737147e+18,0.1278827933600185,0.0380070513594147,-0.020166068597175568,-0.6353935299196367,2.5867089994204076,8.098911845796252
1.7137239667461468e+18,0.05082801748573808,0.011856723957808192,-0.017532682627433568,-1.5709595638626561,4.023052977255581,8.446228982956207
1.713723966756147e+18,-0.0664833166294857,-0.02846266750418138,-0.02056849053303629,-1.7112797358596337,4.623325297752409,9.449036988506956
1.713723966765147e+18,-0.15956034834652186,-0.05474620649765022,-0.012719844924819597,-1.0243851711619614,3.6525880831687862,9.882730526456003
1.713723966775147e+18,-0.21021605869733767,-0.058364203402732594,-0.0028968638981111345,0.2708584045096172,1.3689091845280483,9.600972294026441
1.713723966784147e+18,-0.16464575960620642,-0.052677540778947006,-0.004798265676042291,0.12714739093586608,-2.143557258937007,9.61055186667323
1.713723966793147e+18,-0.08371716864390197,-0.05446944238648272,0.0026048734390369138,-1.0625892078399213,-5.125493712072737,10.552042177171362
1.713723966803147e+18,-0.013291448561254273,-0.039245813894478565,0.015292793209124867,0.42833215641122147,-3.9207264536425566,11.830011021567064
1.713723966812147e+18,0.039328311587674206,-0.00700190424672887,-0.00514278410433963,2.518542297945965,-1.4060260022275544,12.270649752626605
1.7137239668221468e+18,0.08702823177220434,0.029363910906811494,-0.02476496184439518,1.4280783591955104,-2.227980506524889,10.983738014431369
1.713723966831147e+18,0.11317481966433801,0.04682437040427219,-0.0067554318703355485,0.10902925643731556,-3.007715268809082,9.376985037402315
1.713723966841147e+18,0.1690901421918882,0.058975692394481145,-0.010335952331142982,0.3829220839170665,-0.9861409430644182,8.47634403063947
1.7137239668501468e+18,0.1799335134490067,0.06521155194818037,-0.019107556118669156,-0.3282789797566038,1.3930743548485416,8.222616086543917
1.713723966860147e+18,0.12709177451891412,0.0357381667674408,-0.013615461327127473,-1.8902671062803944,3.5112654621826582,8.40391459579777
1.7137239668701468e+18,0.009495555935793843,-0.022181430638768276,-0.008456370251614224,-2.548500886180291,5.0882934858231295,9.105927345794324
1.713723966879147e+18,-0.11039718268203028,-0.0722064526011088,-0.007247955566897015,-1.921539263462488,4.947572492679677,9.653175004581032
1.713723966888147e+18,-0.20391343210241203,-0.09382193006483378,0.0008586122032984357,-0.28696996915162554,3.060408948548187,9.606403800326763
1.7137239668981468e+18,-0.22589234304188752,-0.07211771745630804,0.005341674301327568,1.5338254032925007,0.3215191618126895,9.531988814141181
1.713723966907147e+18,-0.14329393295947557,-0.040298520937496446,-0.005506924937898649,1.0398017175357563,-3.153293393220771,9.712397417629058
1.713723966916147e+18,-0.05468904943574641,-0.021663162641581538,-0.0008433618263569208,-0.6664782535091982,-5.382926646430567,10.454804198992285
1.7137239669261468e+18,0.00682823695485669,-0.011659215507896423,0.006783917204217722,0.3150007913770658,-3.1763819026439877,11.865752169365322
1.713723966935147e+18,0.04486665209266241,-0.003139311070722161,-0.012101854291222463,1.3638235871630084,-1.0310256380519702,12.486841138781067
1.713723966945147e+18,0.07254105035041844,-0.0006077898288583442,-0.017522985419521755,0.1143993685764651,-2.6640432519231663,11.222458789402008
1.7137239669541468e+18,0.10674501673109305,0.010467835250617978,0.0050538671122035105,0.35560684400912457,-3.363532653573813,9.548845758492394
1.713723966965147e+18,0.18864209125660028,0.05237382383651232,-0.010645744176616807,1.528034083132608,-1.0517005627131322,8.237927752209469
1.713723966973147e+18,0.21168341189325063,0.07618127555158963,-0.015421758853894513,0.34898225443306746,1.1390654150771204,7.59513846793743
1.713723966983147e+18,0.16086419956813836,0.05431204792897312,-0.010426222780203836,-1.752542902193712,3.6842333286392766,7.833379596222126
1.713723966993147e+18,0.03347478395139109,-0.0038940316790079723,-0.003958151790372196,-2.8063384200544306,5.989883800370686,8.972872283321854
1.7137239670021468e+18,-0.11709470903154755,-0.06298986374157348,5.6974552774018616e-05,-2.4026533619767463,6.305307543301582,9.793401962094471
1.713723967011147e+18,-0.24316077048340093,-0.09632767883240118,0.009035686909576644,-0.6939800315579874,4.187260161725011,9.893710659394948
1.713723967021147e+18,-0.27581778511125865,-0.08982396066954838,0.011409876512790533,0.9547205632175956,0.4561655164691284,9.824482435916035
1.7137239670301468e+18,-0.17594727367498747,-0.08238030059361315,-0.0014010618528458036,-0.2359724775993397,-4.87189996289867,9.897889481625656
1.713723967040147e+18,-0.06009897321144406,-0.07078066894038693,0.020991500747307663,-0.7411820839770711,-7.1407997072394025,10.527598492801545
1.713723967049147e+18,0.03215489554978069,-0.03551583626040332,0.014614030769596536,2.3554211517388244,-3.1262476768492187,11.585512853615782
1.713723967059147e+18,0.07257533234819084,0.027045873443196804,-0.015670829444130435,3.7039190237414994,0.06543957068356984,11.591996686624608
1.713723967068147e+18,0.061655036390419,0.07245159828443665,-0.02619401640247485,1.611091952187037,-0.6570271830380688,10.9561023861505
1.7137239670781468e+18,0.1004048929131219,0.05728646649426579,-0.022694047845968273,-1.6187061404401835,-2.86474654648745,9.679883594711516
1.713723967087147e+18,0.12131984725835969,0.027300579460487306,0.009895394874773597,-1.9381674620932272,-1.956686928019635,8.73855964721952
1.713723967097147e+18,0.16865272882189097,-0.001229094245334066,-0.008017136068932361,-0.6654226333033046,1.114084340384738,8.287769378236284
1.713723967107147e+18,0.11680740506248594,-0.0194193016456892,0.004293700891899977,-0.7142629592364534,3.1743873610563105,8.16601682458477
1.713723967115147e+18,0.03813990941781888,-0.031682200004943546,-0.003437436864660286,-0.46879113017074553,4.7979879484318095,8.814692904098619
1.713723967125147e+18,-0.08602540559372035,-0.03327988980081622,-0.0036328376656496555,-0.01636127869775414,5.0165761573762175,9.253560003226463
1.7137239671342438e+18,-0.19105819160548426,-0.02775409546135457,-0.004342896825632816,0.48009732629854457,3.574171583643789,9.543550422718699
1.713723967143244e+18,-0.23328405222681467,-0.01263696580446073,-0.0034983566319949384,0.700740860694367,1.171675477697863,9.879984200206941
1.713723967152244e+18,-0.15376378372577115,-0.032308840314658145,-0.015054459728050626,-2.0960864131896524,-3.5859136409995376,10.105235551989777
1.7137239671622438e+18,-0.07612810208807334,-0.07918292446662144,0.011315067768082936,-3.208138855190807,-6.1631458933822945,11.017203673029293
1.713723967171244e+18,-0.003771039327795928,-0.09056555056027352,0.020826710872424263,0.7479173227005727,-2.9790969249057087,12.12861551528201
1.713723967181244e+18,0.0448360510815969,-0.04808113725689296,-0.011760058313420214,3.837072578697385,-0.41863999843836097,11.36902593164426
1.713723967191244e+18,0.04780330251025494,0.04032669332636342,-0.013172574990291584,3.7803305222635393,-1.074654567098583,9.68630438469062
1.713723967200244e+18,0.0893727830396164,0.09242796171163264,-0.02528115099338766,1.5655734001774255,-2.0508264435543824,8.815300838415412
1.713723967209244e+18,0.12388652586431897,0.10750470365982283,-0.01030528046854268,-0.8393674160459488,-1.2504777220954846,8.555032453379322
1.7137239672182438e+18,0.14567234375043214,0.07337238934886675,-0.009576821138580764,-2.2512173802442734,1.234232808628143,8.521373624874073
1.713723967228244e+18,0.0917281074618133,-0.0006863508761175703,0.0010394687667145597,-3.0671939846177163,3.4827006062590673,8.79164431015088
1.7137239672382438e+18,-0.020432620682004778,-0.07629424047169561,0.0036061366553571564,-2.3680255763288516,4.665824876724443,9.683244498600633
1.713723967247244e+18,-0.1336436380767259,-0.10885475430792413,0.004751632535441702,-0.4680081959144071,4.07227607948508,10.278151199779485
1.713723967256244e+18,-0.2049927988927706,-0.09186203626064053,-0.00011105433475582698,1.5884483919334378,1.8148002308642601,9.874956944299681
1.7137239672662438e+18,-0.17865520104908753,-0.043768139262225225,-0.006543212476166472,1.6735718250952436,-1.8269725645000876,9.529336049028036
1.713723967276244e+18,-0.062435451808178916,-0.021724586133852867,-0.016136692641438865,-0.4728872170479437,-5.382445940962249,9.60513386501338
1.713723967285244e+18,0.003850867941116496,-0.0040657397732249585,0.007336821935017284,-0.20095755161787343,-4.044361082803631,10.554623874436444
1.7137239672942438e+18,0.05866788817025685,0.007272711024167234,-0.010249071249868048,1.4067254396780893,-0.404251630468244,11.707450977603163
1.713723967304244e+18,0.03247724710341243,0.022559360060247984,-0.016417901280262368,1.0098083634293376,0.36951426338016946,11.43467294832091
1.713723967313244e+18,0.04492009795699013,0.013924955444691654,-0.019218765481719108,-0.5555662163616728,-1.4518218242758996,9.78047114434539
1.713723967323244e+18,0.06228084105680594,0.0023860989628175645,0.008862434293580444,-0.6652966181881939,-1.8009041537307593,8.257671137452256
1.713723967332244e+18,0.11699051955682972,-0.0018919278180950306,-0.0046622028903259794,0.266735014697617,0.19667176099914133,7.965180135610238
1.7137239673422438e+18,0.0916945021524132,0.007720567147526553,0.0005721697370971827,0.026285393743211212,2.4635648075537815,8.621024603812394
1.713723967351244e+18,0.007947096041139821,0.002644199589344102,-0.004689082044406371,-0.47986026056437314,4.29778553040541,10.053858017792974
1.713723967361244e+18,-0.12530734403320704,-0.01226896651322429,-0.0031688896078168557,-0.5190016041670217,4.14601931115112,11.00165365936092
1.7137239673702438e+18,-0.19194210291500496,-0.039290343536474946,-0.005538945843381468,-1.1068896448646184,0.7872471723156382,11.514319851662341
1.713723967379244e+18,-0.10752891507324253,-0.08799707734300412,-0.0034175414684650598,-2.4350250387826855,-5.286631876312103,9.573736518157434
1.713723967389244e+18,-0.015840241414940517,-0.08356547352713847,0.042174442266106935,0.30752690929581505,-5.9684612216121335,8.340218886010751
1.713723967399244e+18,0.13716747923121306,-0.022874969326043763,-0.00030082141489104854,3.8950706155284327,-1.411741750350948,8.976239131273914
1.713723967408244e+18,0.11336493576228848,0.0658117251161349,0.003739618843836448,3.201702404749959,1.84611784338353,10.307399655140065
1.7137239674182438e+18,0.02405248759330829,0.11032451936579507,-0.01655904595783516,1.139220732555026,3.680692175603778,11.736611324679307
1.713723967427244e+18,-0.06758714632997644,0.08462549016297387,-0.011840405687791095,-2.1202943773307457,1.989481430729462,11.435657480959813
1.713723967436244e+18,-0.040127241202894605,-0.029020997347076492,-0.0073619542847406,-4.811048524639794,-2.862177339969477,9.42633627229159
1.7137239674462438e+18,-0.0064249402159885175,-0.10336981698847565,0.03273890392140972,-1.9308168182040084,-3.680977789513363,7.933235275518992
1.713723967456244e+18,0.10416241218665111,-0.09747879551424428,0.0022430230926527494,2.3651511234424794,-0.1624005432582979,8.173653188660516
1.713723967465244e+18,0.07653641592052811,-0.02148695714573835,-0.004467934260570429,3.2816852417421423,2.267497272814832,9.085909281886718
1.7137239674742438e+18,-0.006524672618573878,0.05190667858667501,-0.0176646370379685,2.7479371831488555,3.95569532338996,10.93101026574609
1.713723967484244e+18,-0.12128907862287537,0.09913225263422822,-0.023493725217284784,0.8445878721847728,3.2555465687763836,11.641554607824977
1.7137239674942438e+18,-0.08983425194632444,0.03001071962957983,-0.030661635411483572,-4.194258978729765,-2.7866956742809417,10.360426716243943
1.713723967503244e+18,-0.02994451575900138,-0.057980160740072784,0.021328847014075312,-5.043068116647607,-6.807271551380787,8.442185762005707
1.713723967512244e+18,0.09519265161015125,-0.09043790737696289,0.029795420648587704,0.3073309056611577,-3.0910660579075864,8.254645610073434
1.7137239675222438e+18,0.14193310180254398,-0.04704057435782737,0.00992315216772794,3.065080675402212,1.9629550714347126,9.655683894459967
1.713723967531244e+18,0.06294131321656046,0.028065073276176848,0.0014763473698868397,2.837986021030883,4.370808987154591,10.555055746661163
1.713723967541244e+18,-0.09215997831026515,0.07902997561708333,-0.0036308008226526257,1.3619900422305733,4.53502823913772,11.265922762017135
1.7137239675502438e+18,-0.14548859278787535,0.04435540226842194,-0.022850534005596983,-1.9849572436977798,0.5385891047311404,11.136942318896736
1.713723967560244e+18,-0.0562180969488823,-0.06806922946707313,0.001051255902398075,-5.2023921175498895,-6.223500198303548,8.600208741958337
1.713723967569244e+18,0.025655493119801424,-0.11650833860662947,0.03450400401345399,-1.4748074967315705,-5.352016611087926,8.19306113475047
1.713723967579244e+18,0.1663037783162555,-0.08663590669103798,-0.006793755243501981,3.684208673966308,0.20942894928529354,9.238479228743834
1.713723967588244e+18,0.12450116837792027,-0.003569218884714541,-0.00886441013392347,3.8629173995849855,3.0201080632612056,9.802152993671331
1.7137239675982438e+18,0.0018321525671246338,0.07654410690988261,-0.018611416406741035,2.7397194508669407,4.577330102204713,11.321211186301754
1.713723967607244e+18,-0.11923981790624831,0.11872004665878019,-0.005537485457662302,1.1510604058723108,3.3965615938717533,11.09080165869165
1.713723967617244e+18,-0.11257722668017672,0.07658606183526356,-0.00889943003263315,-2.906933382756392,-1.6432101229498715,9.674448631133652
1.7137239676262438e+18,-0.033030724093739174,-0.013372343082908847,0.01562153321148867,-5.439406426597744,-6.750069270954462,8.149444991930029
1.713723967636244e+18,0.0799918810533694,-0.06271739730906384,0.04810846930643845,-1.643875250376475,-3.7939803354300707,8.528531544834635
1.713723967645244e+18,0.13950328217536728,-0.056607179341554806,0.016784215972876552,2.0652101986187654,1.880567631333651,9.952662384571898
1.713723967655244e+18,0.0533471616313248,9.386154896519718e-05,0.01958293091276685,2.6032428279059,4.182599193079573,10.765397515011792
1.713723967664244e+18,-0.07765397434291695,0.05173913516415336,-0.00035582790668514577,2.1466946884958227,4.260481285902301,11.201112623487855
1.713723967673244e+18,-0.13435759402865752,0.0616745220995121,-0.004197933843998367,0.034886121061635036,0.9095873328165897,10.687253344836888
1.713723967683244e+18,-0.04847470554608222,-0.007974858736393463,-0.005266175993429327,-3.668347998694934,-5.374244616320553,8.518231923356614
1.713723967692244e+18,0.03347854090052589,-0.05322307562616438,0.034648360311947776,-1.9668530046085002,-5.297035786573333,7.992553677042516
1.7137239677022438e+18,0.15011419949767796,-0.048579231262866084,0.004792531468718749,2.068536896153422,0.28559904626603955,9.149902786589516
1.713723967711244e+18,0.10808575921134805,-0.00048653579833815976,0.0023755477625859688,2.551308344333827,3.6212003259587306,10.162161394310042
1.713723967721244e+18,-0.026945203838883845,0.05862858845518567,-0.010641960057766917,2.236478609450689,5.044250010373084,11.489093362651648
1.7137239677302438e+18,-0.1448211017953978,0.08179987354324511,-0.01138441023110372,0.6193227897296485,3.0308173820149413,11.70168259381655
1.713723967740244e+18,-0.09883715956771505,0.013169775350295359,-0.019886944313284118,-4.2163628762956415,-4.069701210085039,9.788900620481972
1.7137239677502438e+18,6.115194176141729e-05,-0.07230573949327072,0.03481216066549606,-4.476033005671581,-7.413922830916663,7.882561997412648
1.7137239677582438e+18,0.12322968481380187,-0.08317260718673908,0.031169726618540547,1.152966640663082,-2.592846136983254,8.429131602765423
1.713723967768244e+18,0.16974644882567488,-0.027971975561626058,0.008409588102832405,3.6900074433227226,2.537516045087212,9.78059572303368
1.713723967777244e+18,0.07379954125601171,0.04837450396221141,-0.0010396603738908705,3.053202040566125,4.455111505236955,10.690309124835329
1.713723967787244e+18,-0.07767692253443445,0.09899344960753757,-0.007622793287218864,1.194933137119596,4.265967758290001,11.220173344820294
1.713723967796244e+18,-0.14204547948721902,0.07415592733182574,-0.01824031672514056,-2.03934888155432,0.7290350818644821,10.539256563364553
1.713723967807244e+18,-0.05049883851067971,-0.03931674156142851,-0.0033721349820174766,-5.183638061003894,-5.723099486733448,8.208090962811248
1.713723967815244e+18,0.012679389449888657,-0.09335930101997655,0.030057420171304867,-2.2789747143637813,-5.126521654829254,7.832525105587823
1.713723967825244e+18,0.1454411578234396,-0.09212852931868751,-0.002695830310865633,2.7084143876731264,0.4586768750101042,8.920498360987484
1.713723967835244e+18,0.07674833455540506,-0.01031238022181651,-0.004159226019012372,3.586003089358932,3.728925817402302,10.665135644139456
1.713723967844244e+18,-0.035719557711310364,0.06530686279812409,-0.026321043620387934,3.060859759625054,4.901388638112391,12.110900796822213
1.713723967853244e+18,-0.14913026101703725,0.09739759072859842,-0.018341231031654914,0.4335886659995728,2.1403928183967453,11.674269624134059
1.713723967863244e+18,-0.054017736473888335,0.012981307477046811,-0.03511078649542275,-4.807944987596137,-6.220336168896767,9.442669251425437
1.713723967872244e+18,0.030373639414029353,-0.06731239397956786,0.03444154930495738,-4.369282877399201,-8.384387252524753,7.763440834825709
1.7137239678822438e+18,0.20952167500353186,-0.09266559381705351,0.00758313662007822,1.238513143433291,-1.51300885253457,8.67694525488192
1.713723967891244e+18,0.21756021612894677,-0.04378019778276697,-0.0036034324025297996,3.170182693641792,3.2976254045864852,9.685788617977787
1.713723967901244e+18,0.09821477503656584,0.030961392776445253,-0.012603126994036012,2.6132557654548076,5.670844216220863,10.442322558429652
1.7137239679102438e+18,-0.07258848656730985,0.07927220374774885,-0.0069588296547475545,1.2546784301654843,5.473691553804074,10.868225254070474
1.713723967920244e+18,-0.20882879776352792,0.08068463145707572,-0.012731820444492671,0.06258735306269628,2.8451729748843846,10.367865855886135
1.713723967929244e+18,-0.12747810338572224,0.006368668326024203,-0.026596850314716106,-4.266720031037751,-4.01812385184303,8.907391785843336
1.713723967939244e+18,-0.037211627895377054,-0.08500939888215248,0.019528456758956987,-4.65854380666105,-7.462564821491033,7.832179878248464
1.713723967948244e+18,0.11064209874154374,-0.10171172379520173,0.01824817634543223,1.5314488129225519,-2.230327498480395,8.83605193716653
1.7137239679582438e+18,0.1220898716369504,-0.03928280697798175,-0.0059363146487957435,3.8431036844643316,2.713849121685529,10.703210111569467
1.713723967967244e+18,0.02916717902760738,0.045515977166780956,-0.009274760886715926,3.360195768255831,4.168964352962056,11.61096396032782
1.713723967976244e+18,-0.10210326409937857,0.10766452882661862,-0.0016953420413417372,2.1752849197890014,3.2028786617777016,11.772465543533722
1.7137239679862438e+18,-0.07753191418707421,0.07187064599699994,-0.03110055789410403,-3.6673782769761436,-2.836195897147643,11.107895632990067
1.713723967995244e+18,0.03314104516805844,-0.03700955927994029,0.0052074066919149285,-6.776906964009946,-8.68324021983512,8.872751573348399
1.713723968005244e+18,0.14682834863260277,-0.112244207698576,0.03452899094918998,-1.3649290120943576,-4.707134478492892,8.802627931348606
1.7137239680142438e+18,0.26404742537175874,-0.1256777953093312,-0.015523920601441796,2.7476768380403795,1.5101200256439915,9.25325918704562
1.713723968024244e+18,0.19606463583989192,-0.05098490641560102,-0.011394656425874524,2.908401796586554,3.7653523521487253,8.695851012830367
1.713723968033244e+18,0.08295088019271575,0.016495775894113007,-0.014071355480660186,2.2999766487552606,5.443734615022559,9.372914688468622
1.713723968043244e+18,-0.07294132681744406,0.0668557730292782,-0.006170386764365002,1.2540852652362446,5.355127090261735,9.425510125010783
1.713723968052244e+18,-0.1835357129043038,0.08804071355267358,0.006230593484416474,0.48096022245366904,3.720192656390943,9.296526373222541
1.7137239680622438e+18,-0.22285943438833555,0.08311331570550903,0.005828805413655422,-0.5472564610691081,1.1087905728424206,9.496086504974
1.713723968071244e+18,-0.13895488422729552,0.007542700674086582,-0.0075475985509778215,-4.11977244724401,-3.6888096448133765,9.26774023066856
1.713723968081244e+18,-0.08526376978769783,-0.07551166435346826,0.04418605732209202,-3.573044013662167,-4.948735032126839,9.874714485094207
1.7137239680902438e+18,-0.014447876739382106,-0.09178121922842494,0.0350789806548142,1.6781167830771981,-1.206530946854751,11.511366587670615
1.713723968100244e+18,-0.012517673022918898,-0.022928840967397092,0.016634960974215022,3.672502165969788,0.1292396136138568,12.43538301062489
1.713723968109244e+18,0.04468713882408805,0.0234743675330037,-0.01580037366504949,0.6888870641688346,-3.401916121420172,11.825838178802101
1.713723968119244e+18,0.13091278889033447,0.009819447829346779,0.0031509867108847674,-2.252475890798545,-6.785732665041925,9.730726393332809
1.713723968128244e+18,0.21429811816808222,-0.00730472953783565,0.021552797798365546,-0.26062864852015105,-3.3973390854957923,9.009805252808164
1.7137239681382438e+18,0.29255735868001886,-0.0033698672886582222,-0.01024197458359522,1.789528160799764,1.5838198743608856,8.401629543532124
1.713723968147244e+18,0.23074307731006888,0.03338421329796673,-0.006946556643025463,1.358091090751353,4.364966912841143,7.7095503645031815
1.713723968157244e+18,0.08774112679573122,0.04659374400126001,-0.014299514640592698,0.2910279416960633,6.613687488031005,8.413511409570539
1.7137239681662438e+18,-0.0700807741093086,0.0401870074288735,-0.005403115474918553,-0.4652837008921612,7.1444942972603815,8.937824255747909
1.713723968175244e+18,-0.22126430046616585,0.020349523383642563,-0.0008304648797870152,-0.8530741444954734,5.388187642689549,9.118438589793943
1.713723968185244e+18,-0.3023311364253057,-0.0100054843724421,0.0023546529829086074,-0.935661477115469,2.1077095973267577,9.475408942952768
1.713723968195244e+18,-0.22223812115716038,-0.07804663294565727,0.001648753254476316,-2.899896832385207,-3.6614326038167544,9.793111954825658
1.713723968204244e+18,-0.1389256472201152,-0.1216529637316287,0.037495074533051745,-1.8057467946984864,-6.95924874724446,10.89709331933083
1.7137239682142438e+18,-0.006766801717857402,-0.05728720517357261,0.04441395213814666,4.454896934604999,-4.782035681262419,12.220360947750969
1.713723968223244e+18,0.054459898907655714,0.04796020621436541,-0.026509983240481823,5.075290425320879,-2.577412079075317,12.86981653406321
1.713723968232244e+18,0.15324999530452843,0.0967086551316853,-0.030026323630861662,-0.28912932435355465,-4.053388673605315,11.538639293085449
1.7137239682422438e+18,0.19181943629000306,0.07486420926784368,-0.002388371893428725,-2.3945956522704983,-4.022854587085624,9.14411036748954
1.713723968251244e+18,0.26673482938911464,0.023050149619507437,0.0051074655333501326,-1.1645749032496824,-0.18172024655650176,8.095839345132896
1.713723968261244e+18,0.24231191887167164,-0.0048734139921414905,-0.0070380151563839794,-0.3741918884893374,3.2385517746183505,7.747333301936458
1.7137239682702438e+18,0.1581731346551249,-0.007700882907241068,-0.0037815122860705135,0.05712717132727532,5.665003731135671,7.768370482592756
1.713723968280244e+18,-0.009940772877386386,-0.005746926842089345,-0.0027590822510949234,0.367297580687184,7.116518041242606,8.444736555443063
1.713723968289244e+18,-0.1795955104914793,0.0022145333046482947,-0.008621256432524984,0.6474994791590034,6.565416992800288,9.626093780487984
1.713723968299244e+18,-0.30606745837500254,0.017098723973459393,-0.005189098083276369,0.5657287691105171,3.660579477100313,10.023031314849273
1.713723968308244e+18,-0.2703197658099766,-0.020256364148139937,-0.021650441320720887,-2.300204658092194,-2.0603648952804425,10.13300615161455
1.7137239683182438e+18,-0.13833032274469215,-0.10859164947412633,0.012673067089834011,-3.865571351956343,-7.811164969529231,9.546236502813098
1.713723968327244e+18,-0.03428554275447539,-0.0996550227227887,0.036943470527154014,1.520557694112028,-5.4593522851595635,10.477432675415173
1.713723968337244e+18,0.0798134127085161,-0.004649598566455971,-0.007144130999837056,5.6328615926688546,-0.41205776166915165,11.651701567350038
1.7137239683462438e+18,0.04484540071728517,0.11596352607335349,-0.008561449907324898,4.413932393210738,0.5993440287949041,11.562870716092965
1.713723968356244e+18,0.07605420993511608,0.15032659289956196,-0.03236767344716742,-1.0236800674677702,-1.9093143369771823,11.644652403538052
1.713723968365244e+18,0.13008128240351902,0.06334078897406202,0.0037384057783641828,-5.753401954449613,-5.209288173217065,9.516879763156851
1.7137239683742438e+18,0.17263573491907608,-0.01659762450464999,0.045627337543344595,-3.546140153669605,-2.3533760490948223,8.744289702362673
1.713723968384244e+18,0.22645553999927315,-0.06696175837540176,0.026872053170319224,-0.04491032635729031,2.447750336364601,8.398494471253953
1.713723968393244e+18,0.1520761069425986,-0.045900693092440444,0.04063370044022836,1.1855919426384867,4.5545815793971665,7.935867453532774
1.713723968403244e+18,0.026616383015460304,-0.008174449202018062,0.024019857696812617,1.325713787431417,5.792680564347091,8.904124170724529
1.713723968412244e+18,-0.10036002050304321,0.029305485819941197,0.05433189505561265,0.9712809371572666,5.405596763629364,9.297125239480089
1.7137239684222438e+18,-0.2146382128034734,0.0584362872544989,0.04464663203884351,0.6824718742875375,3.8041262185013403,9.501986168641094
1.713723968431244e+18,-0.24954480264226941,0.06197795939079022,0.05580921448850236,-0.4833937328767627,1.1417412568358238,10.085735466169838
1.713723968441244e+18,-0.14946849633179143,-0.016238519506292997,0.03206832233727155,-4.175614001566899,-4.4537482676545945,9.777377655706578
1.713723968451244e+18,-0.09847963610441804,-0.09313283525592764,0.09926704214328488,-3.4896043216514263,-5.870361504261093,10.286611741958518
1.713723968460244e+18,-0.0032005725318568013,-0.08914957997127909,0.07961966365675045,2.352062240289954,-1.5768350597626117,11.722927539182022
1.713723968469244e+18,-0.0020060768511565973,-0.0036485352514012224,0.0709542879899615,4.529562210146861,-0.001316445279634898,12.094030618144968
1.7137239684782438e+18,0.04547674415712755,0.05872262361203556,0.0352876682672775,1.5226528842906244,-2.8499787982563785,11.419746926194737
1.713723968488244e+18,0.12712881569279702,0.05621568359099918,0.05126342518727961,-2.309574242112032,-6.1776948443334625,9.45091288261833
1.7137239684982438e+18,0.21446348932697681,0.01947807155805296,0.07493102202409392,-1.3198729838069374,-2.8372407877865022,8.582533261339687
1.713723968507244e+18,0.2567827510545025,0.008246268707203578,0.05085212009188139,0.7208270535986655,2.1835635280304175,8.437606745771923
1.713723968517244e+18,0.17571722462788006,0.024475048679221963,0.05691939328423398,0.44060127534238747,4.893482375929226,8.178534029245768
1.7137239685262438e+18,0.03330781794878144,0.032216038521326575,0.053020225473605916,0.02689996849135554,6.881535634203459,8.928900194703505
1.713723968536244e+18,-0.1360079672064443,0.030830494092710565,0.06059223902717682,-0.42512102456726125,6.566612682692709,9.563902460768741
1.713723968545244e+18,-0.2535536992325224,0.016771992505402365,0.06847068091470941,-0.8234304128491009,3.930017400867247,9.558522776122233
1.7137239685542438e+18,-0.25350416988273083,-0.03158900867938361,0.06774352865751022,-2.374504994731432,-0.6941226811568676,9.512011658700054
1.713723968564244e+18,-0.16439233521403077,-0.1036771619143099,0.08974099694706224,-3.37265130750816,-5.676806538448816,9.195232987284987
1.713723968573244e+18,-0.09456712916614861,-0.10568049556650229,0.11977135688003518,1.047461359390274,-4.426352023705999,10.14274015512849
1.713723968583244e+18,0.0015777657592566767,-0.017736257527877233,0.08494978661977436,5.343181776633541,-0.6561458893670471,11.730631116039813
1.713723968593244e+18,0.002860215691247674,0.09797626357179137,0.07642625137096179,4.207566685357649,-0.590565437552117,12.43263051252639
1.7137239686022438e+18,0.08953404707725728,0.10495094520096972,0.0431817575319598,-2.0203872820946542,-4.63624161441359,11.710986330723
1.713723968611244e+18,0.13911852853709328,0.03679869685109455,0.09433463699106934,-4.9864020446084325,-6.649251929728203,9.720118326745046
1.713723968621244e+18,0.23085324233024487,-0.02944321991684936,0.10217634897142507,-1.2488502038025355,-1.5440512351858893,8.743234248910479
1.7137239686302438e+18,0.2504568264896019,-0.0341737888370084,0.08583243942826739,1.0347500976095836,2.9466931313320037,8.290834766750283
1.713723968640244e+18,0.16732539717003694,0.010418819891688037,0.09535239672510083,1.1162406904286508,5.160253769124344,7.834648973750118
1.7137239686502438e+18,0.011613672897673375,0.047687686270514756,0.10150279252225594,0.21965513929982383,6.702525640605351,8.434214438789231
1.713723968659244e+18,-0.1350210072737178,0.05760031565641863,0.1203232017578537,-0.7143813758318112,6.609757409256053,9.287373289117767
1.713723968668244e+18,-0.2652927488652692,0.0476179566902677,0.14129800696850514,-1.2278506702532752,4.521968081236712,9.923675783958608
1.713723968677244e+18,-0.27345640591637843,0.00030597714911766074,0.14632160573801642,-2.9568953260261974,-0.12461704587675601,10.334979048757507
1.713723968687244e+18,-0.1702387350779494,-0.09964610489755131,0.16657248771911498,-5.025992549041023,-6.219729410826093,9.074148145244427
1.713723968696244e+18,-0.10546446790154239,-0.13116788591129416,0.20579239692627782,-0.4421896382016493,-5.14263364163615,9.372302585349125
1.713723968707244e+18,0.019043006787060095,-0.05832126161830395,0.16609085715410804,5.139790695885394,-0.4679928776961187,11.030403498537911
1.713723968715244e+18,-0.011245112845233808,0.0586834063208554,0.164248913054158,5.232751669572738,0.37691267181845634,11.704516606579858
1.713723968725244e+18,-0.0016754216662605871,0.1396904125505965,0.13536318260470473,1.5705709316071528,-1.1589418092919836,12.74620232661533
1.7137239687342438e+18,0.08708633629622053,0.0865994382177048,0.13474806139041695,-4.643115902212376,-6.269974395601222,10.846805207739678
1.713723968744244e+18,0.1352931930246673,-0.00034336546249729544,0.19609411026779866,-4.349034187856856,-5.360351268011396,9.043525224983112
1.713723968753244e+18,0.24538823557726616,-0.047720069315588864,0.17082767913595387,-0.09234248406983747,0.13724896953177673,8.236082752441012
1.713723968763244e+18,0.1982313403970179,-0.02772245545816382,0.17723337729787886,1.3590711175153742,3.61648257480287,7.915006944491446
1.713723968773244e+18,0.09586103794266919,0.00943680185510218,0.14525847526217833,1.1993038909335738,5.796062848424029,8.547916057442675
1.7137239687822438e+18,-0.0489152605873913,0.03475612196764288,0.17663721274134608,0.37611813302320013,6.288320175726463,9.057719680573056
1.713723968791244e+18,-0.18522979760223002,0.04264184907147901,0.16325002186903229,0.13486471053419816,5.358873026035843,9.80007242689473
1.713723968801244e+18,-0.2888964512061184,0.048763977052157695,0.19580434140475922,0.333321677912612,2.769610996504916,10.201597320604765
1.7137239688102438e+18,-0.22035038030944618,-0.0010825530275172853,0.1558529134088411,-2.9576737683345904,-3.2275370423056575,10.097346996047541
1.713723968819244e+18,-0.11463394622118761,-0.07817640785548759,0.201607273625874,-4.295433322012087,-8.060458674509592,8.901468163810925
1.7137239688302438e+18,0.03103815145857622,-0.08635949383219893,0.20974777350385632,1.608076428958588,-4.161374950333477,9.615326497188246
1.713723968839244e+18,0.09799710638854832,-0.006902311436772694,0.1798801470073792,4.965103658266337,0.7792863733557817,10.747384481948293
1.713723968848244e+18,0.03534701934378884,0.10503328589346436,0.17239712252082337,4.017301555892815,2.556031370026095,11.345249555767632
1.7137239688582438e+18,-0.0489172905660227,0.16069377990922443,0.1590439934761487,0.49286944415685763,1.963818383091366,12.566949941015132
1.713723968867244e+18,-0.004564692649269637,0.06657340938095625,0.14416303215388895,-5.18946963872858,-3.93235383719893,11.23722995563138
1.713723968877244e+18,0.04999916765468306,-0.05946417948186526,0.20399644409370127,-6.006411796175875,-7.213127146703897,8.787950990609154
1.7137239688862438e+18,0.15691389433394304,-0.11227605249084834,0.18942235926484238,-0.7278704401710757,-2.487812707642146,8.47390785442166
1.713723968895244e+18,0.22393725917009177,-0.08550132864865632,0.17187059073889543,2.7224431255509276,1.795324155516663,8.325784950019825
1.713723968905244e+18,0.16329830267877418,0.0022484196893590306,0.16428997978302573,2.605910801245538,4.0027189591302355,7.995807214884207
1.713723968915244e+18,0.035206451972417965,0.06482358036445121,0.18336080513899097,1.3775264882538227,6.108133388697102,9.140456651789677
1.713723968924244e+18,-0.11907767152833434,0.08367892772678692,0.17893610011837516,0.16503436931028953,6.547466334645589,10.018328854430267
1.713723968933244e+18,-0.26980234334191217,0.08127607878830256,0.20135733448432636,-0.28082583656133475,4.769139685266814,10.39574315034573
1.713723968943244e+18,-0.2946179950364786,0.033341396915442634,0.1789570160827889,-2.5661086782722613,-0.5860596658395851,10.709929889985547
1.713723968952244e+18,-0.1534691451935919,-0.08263093933102092,0.18953416854451774,-5.991278287641615,-8.282203592378911,9.232798546868043
1.7137239689622438e+18,-0.04967058280305957,-0.13383820471891844,0.24573635236076807,-1.7470769408623972,-7.180640964215912,9.049117798722461
1.713723968972244e+18,0.10936947591570453,-0.09185159372327134,0.18831744897661018,4.6093771928738825,-0.7012725046950492,10.485877993184953
1.713723968981244e+18,0.07124674526732837,0.02852256565015939,0.19553693981755083,5.260473700070905,1.6867500906753154,10.990797270225896
1.7137239689902438e+18,0.007970206662181076,0.13406551292598792,0.15834342842112403,3.910095230521305,2.314466632931534,11.172901889908555
1.713723969000244e+18,-0.041122151099707245,0.17427855112420837,0.16248162088809162,-0.5874085595458969,0.5100416517890752,10.4763212667885
1.713723969009244e+18,0.01272313403172402,0.07657446117421919,0.1478588637084112,-4.853084792660059,-3.386015479114221,9.084750401402475
1.7137239690182438e+18,0.024244385897712585,-0.011461849974771942,0.203375592101686,-4.097662687841248,-3.371699107737837,8.474038449087082
1.713723969029244e+18,0.10285351377683444,-0.06600015819734417,0.1869895829859825,-0.7240586463031495,1.043450334771727,9.261243302688282
1.7137239690382438e+18,0.044061270952540005,-0.046456962183596774,0.18742747891967393,1.1942381395602186,3.003044322450815,9.710815793584517
1.713723969047244e+18,-0.02785889245489635,-0.00880821450066034,0.17438958565865456,1.9438084508848303,3.450086318802694,9.997253390354158
1.713723969056244e+18,-0.11972440427726457,0.03877115946004829,0.16553699732806265,1.8255308451438457,2.5000988931198673,9.679141271902244
1.7137239690662438e+18,-0.13720165193279638,0.0491706298803588,0.1504116235348523,-0.3612703758276547,-0.4297882580867134,10.417754712538123
1.713723969076244e+18,-0.04667845866189856,-0.017131177158568003,0.14732281871960096,-3.208311961386616,-4.619924499370369,9.354691090827817
1.713723969085244e+18,-0.009676164200218286,-0.05612449921004464,0.1827676272556758,-1.3875229073748363,-3.64369678840719,9.187825189316136
1.7137239690942438e+18,0.08750578324132337,-0.05752474918293751,0.14057247581778162,2.2361340491407633,0.1892103198403368,9.359667045464334
1.713723969104244e+18,0.03585145383600091,0.008122373924029966,0.14079714282265537,2.9643831994098466,2.180600364278022,9.576731238161855
1.713723969113244e+18,-0.0399835871811869,0.06503843152009249,0.12214620760234739,2.462264303050748,3.1817271912027314,10.994123290689606
1.713723969123244e+18,-0.11903910353146778,0.08720258175938382,0.11200184751073188,0.10024843648586321,1.6033064822426681,11.852213779990034
1.713723969132244e+18,-0.04791991041483595,-0.005163216792969282,0.09091593632377287,-4.32824415706153,-4.624100177082141,11.010897981799353
1.7137239691422438e+18,-0.004517295348522323,-0.10854680931938823,0.13908596982606358,-3.5959019502213736,-7.268520928861214,9.161952599671967
1.713723969152244e+18,0.16284455477483456,-0.11588610491006698,0.10186179375884556,2.596598817775619,-2.496925281981606,8.681819716740218
1.713723969161244e+18,0.19452551398680257,-0.023873640062236814,0.06946748941242627,4.509693534500651,1.0197539546227927,8.653896431644837
1.7137239691702438e+18,0.15714383829551762,0.061845845006042906,0.04471798039880339,3.057618925035298,3.165894673845739,8.96728470314353
1.713723969180244e+18,0.03058791173958612,0.11078445906629975,0.042060368309089484,1.1121389866163154,5.008601910128093,9.768891966668008
1.713723969189244e+18,-0.1095409218829389,0.0983761129191203,0.03104121342844074,-0.659750440959935,4.947738088367722,10.325173965760571
1.713723969199244e+18,-0.20787977920934803,0.050913547977581096,0.042680766850295766,-1.599905988303148,2.508355312036175,10.039653654234005
1.713723969208244e+18,-0.16322992411875495,-0.038280495112820764,0.029961467488557728,-3.647289413164204,-2.387058045855556,8.599769240118071
1.7137239692182438e+18,-0.10827491547481793,-0.09880367078942362,0.0782233116441425,-2.2978916624168306,-4.701457842400963,8.346321504170179
1.713723969227244e+18,-0.0018449061428959241,-0.07911348755259454,0.061990409792024026,2.726703201969232,-1.7592155264167992,9.416932573447383
1.713723969237244e+18,0.009286795030322214,0.018544653237654925,0.04442738432261711,4.3558880631268515,0.931139790171339,10.8214022547656
1.7137239692462438e+18,-0.035087369188367135,0.10050423067150287,0.021232462342851047,2.749847106360431,1.6630127302790285,12.483012963315709
1.713723969255244e+18,-0.019149231829068677,0.07460129856524578,-0.0020368533518171717,-2.903155606085794,-2.153337467600948,12.529793190056468
1.713723969265244e+18,0.027022330495449307,-0.03796364191144605,0.0300520431275314,-5.448968090066764,-7.138724079222047,10.109819272813244
1.7137239692742438e+18,0.12303196917331663,-0.08305829238806188,0.058790696689489455,0.2356823224620756,-4.349355968665834,8.840561911991122
1.713723969284244e+18,0.23549662948103797,-0.03311426233279814,0.005955794227846657,3.8073204302300825,0.3798979996076884,8.112653598849569
1.713723969293244e+18,0.2110212656465418,0.04970627515460138,0.004205020784505227,2.8076473072712793,2.7770131102414584,7.7324218390098425
1.713723969303244e+18,0.09385941132218223,0.09557753640341803,-0.007847437527146587,0.9842536732334759,5.9203454621461695,9.279862877755411
1.713723969312244e+18,-0.06967614326826035,0.08465538850665141,-0.015020855933136873,-0.7936570001166792,6.993178403006596,10.355748464969116
1.7137239693222438e+18,-0.24786589874324444,0.039080874744120156,-0.004971319426975062,-1.3042030994370677,4.865639729132379,10.496910873983175
1.713723969331244e+18,-0.2711106033720362,-0.027044130657450254,-0.02716190440759717,-2.460232379972835,-0.44576783738503156,10.186593022789785
1.713723969340244e+18,-0.15512282584590312,-0.11208822516217509,-0.001961012946246876,-3.818502126685699,-7.6586699498026025,9.038933165245089
1.713723969351244e+18,0.002121673512483448,-0.08762598352595494,0.03292308448511133,1.985631102127496,-7.166350466566818,8.850285559507114
1.713723969360244e+18,0.13867415437817776,0.007209065690978025,-0.035337555376926816,5.893552682749134,-1.3741104306932743,9.812059513706942
1.713723969369244e+18,0.12157573205177219,0.11162303065760223,-0.028450441377164234,3.3864211966254762,2.2751048552593467,10.92462670226012
1.713723969379244e+18,0.020330992267207262,0.1556494239114642,-0.06012523979084336,1.0437528140049708,3.6789566398628524,11.784177246036407
1.713723969388244e+18,-0.05350077656744111,0.10170501711037229,-0.05341791759553337,-3.762245906541939,1.05176642014433,11.585750355469955
1.7137239693982438e+18,-0.02223253985214131,-0.03760013492040744,-0.03254662661292349,-6.10349375365364,-4.2570403373661305,9.729472650678552
1.713723969407244e+18,0.01685197520900256,-0.09622026924601584,0.008392776160637685,-1.43441477804881,-4.032707347254194,8.710392587723232
1.713723969416244e+18,0.12821506802603233,-0.07281010011268059,-0.026055101420461052,3.120993965556668,-0.642383018355143,8.549397813689902
1.7137239694262438e+18,0.129550562301817,0.01950004653444399,-0.027475578079640847,3.6178995072695517,1.2603815226782067,8.33442705241208
1.713723969436244e+18,0.07362477770284906,0.0938965951968109,-0.0436751861356291,2.40032076143329,3.400015282138646,9.281737635693064
1.713723969445244e+18,-0.023336472850393152,0.12024684557037633,-0.050062488496332075,0.17979930169584357,4.192765431196513,9.795990552460792
1.7137239694542438e+18,-0.12369953701374908,0.09007158553873935,-0.05184603476785425,-2.1081965072653555,3.268952552617675,10.557175916725873
1.713723969464244e+18,-0.11481509040991815,-0.018912800890948468,-0.0433528229779273,-5.073702130749833,-1.2000287274924712,10.02616287704304
1.7137239694742438e+18,-0.09329145162731234,-0.10813910715819064,0.003234156146097962,-3.840542968199262,-3.9479351380273338,9.104795261378534
1.713723969483244e+18,-0.008265379270857274,-0.11427426782299183,-0.010578210543592986,1.5346915598255206,-1.7639880211007832,9.363133350294799
