t,gx,gy,gz,ax,ay,az
1.713723114298148e+18,-0.18553202152022652,0.026030362289924835,-0.0748385369420883,-0.5868456221666665,-1.564937964048634,9.507405003690673
1.713723114307148e+18,-0.07817454660166206,-0.032000036440314225,-0.06460609911340078,-3.3629754827276273,-6.123795869851618,8.69445845510638
1.713723114317148e+18,0.0029472382273228862,-0.05420713502810806,-0.03233198407438605,-1.0222273152503827,-4.230157137018201,9.597211009995663
1.713723114326148e+18,0.09378657672811333,-0.021789484715268297,-0.06575747769636574,2.9853697531627255,0.5380585650110267,11.012300205441601
1.713723114336148e+18,0.03585742951915313,0.06207473658754108,-0.06930391131119971,2.985691150537606,1.8423540518028467,11.048389095168965
1.713723114346148e+18,-0.02052819944668948,0.10854608600756975,-0.07695920402445532,1.3007445984466532,1.610446036366341,11.394313347158898
1.713723114354148e+18,0.015477272617922012,0.06311484167159911,-0.08711015751428586,-2.8986770649149776,-1.602503323147782,9.983959924150694
1.713723114364148e+18,0.03210214775990283,-0.030652334379038408,-0.04503967061287791,-4.431603266102267,-3.6328257847247523,8.459759335244724
1.713723114373148e+18,0.10480371677160627,-0.08489098883994423,-0.04978101748295944,-0.9401037324178415,-1.0561983673701256,8.406374542982658
1.713723114383148e+18,0.09846785801026137,-0.06375413444964563,-0.05053977260800195,2.0363624372478086,1.9422210221967362,9.167405967587543
1.713723114392148e+18,0.039966103430459,-0.0014782214721470164,-0.06951372899589234,2.8743574648653807,3.439177963864728,9.828656974097383
1.713723114402148e+18,-0.060790152855800195,0.05937558069746787,-0.06810885515109373,2.151445943234303,3.621369694944486,9.867518150440022
1.713723114411148e+18,-0.12668146272407926,0.08133483044694223,-0.07902697726865072,0.9062462922912541,2.49984436428145,9.633901852851922
1.713723114421148e+18,-0.11914062058054271,0.05214892336672784,-0.08317972155010002,-1.4587774185970883,-0.2804271437644104,9.56479212646554
1.713723114430148e+18,-0.06778687296172312,-0.02542512438932814,-0.08133521111297896,-3.9708062578734853,-3.36363983527264,9.506985431842926
1.713723114440148e+18,-0.02644303098908441,-0.07576323367357364,-0.04504120120910433,-1.8280470378872375,-2.3745843375128266,10.186140942332003
1.713723114449148e+18,0.020346275405505525,-0.059505125114404964,-0.06479927511780732,2.126771944506654,0.26179473469331005,10.641555179335509
1.713723114459148e+18,0.002818735459452112,0.02183950613773386,-0.06734516224065422,3.1839788059206615,0.7014539277222871,10.186652119095733
1.713723114468148e+18,-0.00746471162625407,0.08138427451312344,-0.08125734283352334,2.102566089955703,0.3343115342817619,10.541296908669587
1.713723114478148e+18,0.031002199981065133,0.06334200425948314,-0.08470073855888258,-1.4047354125947487,-1.6735386647005293,10.17432228538606
1.713723114487148e+18,0.038627933262954786,0.007620595071050874,-0.05525769972516643,-3.0192804821911086,-2.4247782555456334,9.667597152983413
1.713723114497148e+18,0.08164359517535419,-0.03576727713517798,-0.05490400763446949,-0.8916818834596639,-0.4249529812980633,9.296073431089807
1.713723114506148e+18,0.07633127794927608,-0.03061922476715747,-0.060408416901989434,0.8588824805937731,1.1736154486299861,8.942323645934247
1.713723114515148e+18,0.045072563755444814,-0.0026618349057215733,-0.07038264231622866,1.38706068880974,2.057033216778911,9.067629701680309
1.713723114526148e+18,-0.021213320961476632,0.03276678828129359,-0.07708802105832446,1.0863318868128515,2.7692722200110373,9.345934300452704
1.713723114535148e+18,-0.08495631380825572,0.04121516979533886,-0.08620459378482322,0.18446590271948832,2.6173621005757455,9.584121011656581
1.713723114544148e+18,-0.12072387730321003,0.019955323246538603,-0.08399183631859689,-0.9625896685844052,1.3935355689215179,10.107236036330917
1.713723114554148e+18,-0.0923157359442487,-0.04693848310087385,-0.08318869736322891,-2.875442773147466,-1.7925033793697696,10.451406598418371
1.713723114563148e+18,-0.06419867408911863,-0.08914196439648255,-0.045629875998779615,-2.04427976869501,-3.43025732842259,10.32894069067892
1.713723114573148e+18,0.013207726878366289,-0.061014041776387425,-0.04553650177928746,2.1437806885063324,-1.8385351012870839,9.937908996959226
1.713723114582148e+18,0.056077881891379494,0.0269901521006932,-0.06055328971513938,4.053971317994536,-0.5930123332829995,9.304682857660845
1.713723114591148e+18,0.06022648188498517,0.1048479320261207,-0.0716417078385145,2.8014882328764954,0.21267792740248,9.321185717386443
1.713723114601148e+18,0.03161212476750127,0.12647424690049924,-0.07513390448408247,0.11085753906913738,1.4561007904767753,10.390338099650982
1.713723114610148e+18,0.01167509520012136,0.06342342723163025,-0.0784512161429626,-3.256383718403477,0.931569766315121,10.846791141874924
1.713723114620148e+18,-0.010790712688278775,-0.04378845539936686,-0.05528845391403073,-4.584253677086069,-0.8450129872179373,9.917408692596942
1.713723114629148e+18,-0.007409934077890651,-0.10505758626546989,-0.042864276514819895,-1.7973597109159178,-0.7071392520970368,9.05630719983721
1.713723114639148e+18,0.02850262201955186,-0.08936789303014904,-0.054968395020275694,1.8637686391519641,0.1361444838898313,8.434026886831871
1.713723114648148e+18,0.031115817718862925,-0.015672479261494572,-0.06351550496669577,3.375721600319654,0.7382244319258866,8.477163303892429
1.713723114658148e+18,0.0026620172844954914,0.0645464454502342,-0.07842303688911248,3.0278285173101205,2.1595324943969034,9.612518604399261
1.713723114668148e+18,-0.0671254771125612,0.10533049179397716,-0.08441626170575545,1.2625108669028775,3.039542998270379,10.798390089289423
1.713723114677148e+18,-0.11738859205339383,0.07593410165927694,-0.08376627717960368,-1.580964737592369,1.8734209633169845,11.73293570058504
1.713723114686148e+18,-0.07383014396551654,-0.027484564413049677,-0.0713218280883546,-5.151033965851056,-3.3859654468590734,10.680818656427553
1.713723114696148e+18,-0.03474272498546948,-0.10364059284374116,-0.016549797875275572,-3.327451407721123,-5.4330923143924466,8.870272539570328
1.713723114705148e+18,0.09091840032433222,-0.09292535821620647,-0.03771200350948174,2.139730608690451,-1.9061273627129829,8.437992692576845
1.713723114715148e+18,0.11190463078942302,-0.0069111188141970205,-0.053931521727784454,4.307210397484718,1.2483715728052729,9.041380508052248
1.713723114724148e+18,0.07344739008221787,0.07953413373363195,-0.0772065896434062,3.6023705315457666,3.2454637767258374,10.186581544096684
1.713723114733148e+18,-0.03320140254558286,0.13439297498949984,-0.07485077654213336,1.4472582478519513,3.995628720759439,10.881866236865102
1.713723114743148e+18,-0.12801457537236394,0.10670248436067091,-0.08762999607495861,-1.2917871955470752,2.50543503570602,11.09357613455682
1.713723114753148e+18,-0.07983645429363026,-0.00931479542381401,-0.07659255637732104,-4.782673230875506,-2.8890793323073125,9.025658427543465
1.713723114762148e+18,-0.04549089217086774,-0.07973256670854545,-0.03899624655420724,-3.8166369446131454,-4.7987354284722725,7.905154999556553
1.713723114771148e+18,0.07353263229971971,-0.09347248850151925,-0.0644857735775535,1.2749249597955592,-0.9182361523541234,8.314400173912537
1.713723114781148e+18,0.0457099039974823,-0.03205943434328171,-0.07438361416653165,3.462041136375136,2.3613428295431294,9.966221228598801
1.713723114790148e+18,-0.0203031414274104,0.0462155790667664,-0.09643074706327213,3.4466814815839393,3.858851345759346,11.578084403217288
1.713723114800148e+18,-0.13652285090989483,0.11026722021075551,-0.08504095878921139,2.0881505723466187,2.9558511601646007,11.660034275669894
1.713723114809148e+18,-0.08787404495148919,0.06172925925248635,-0.11068685754369142,-2.919574967905836,-2.882359673501755,10.481713434724716
1.713723114819148e+18,-0.008074485132501683,-0.023787261923331263,-0.04911600388042123,-5.195579817960253,-7.734596622936564,7.976240552556228
1.713723114828148e+18,0.12935032023602833,-0.06431281715635645,-0.049035157336393395,-0.42275272932313446,-3.3547446736549493,8.285348885850853
1.713723114838148e+18,0.17796576745051193,-0.04591571941381323,-0.09314742954414196,2.852941063700248,2.414889970825808,9.803300063304711
1.713723114847148e+18,0.09676111980564973,0.004289618807060956,-0.10947100851590373,2.653443276850525,4.253294743591166,10.358079987092975
1.713723114857148e+18,-0.06020531855797122,0.04815865815032433,-0.11787719479709868,1.855541371692879,4.841805406071318,11.089922784648277
1.713723114866148e+18,-0.17436392675296322,0.0602755770285386,-0.13825384454797218,1.3883389428492143,3.1619935704329185,10.192072321418726
1.713723114876148e+18,-0.19619453353865035,0.05738835304642648,-0.1417050931682879,0.33721039808616604,-0.2739821358782881,9.072069858856185
1.713723114885148e+18,-0.0875947756374301,0.004851844709480168,-0.1858464229640019,-2.3040942027979017,-5.1018048130303,7.889145892991817
1.713723114894148e+18,-0.014340524682282193,-0.03288146079155478,-0.13771701254450852,-1.290149900531333,-4.409337931595493,8.47234411235286
1.713723114905148e+18,0.054976118246557015,-0.03981289733414104,-0.1980824989843168,2.1975767102351487,0.9117204768054897,11.23574867807287
1.713723114914148e+18,-0.006585195064414826,0.011279364144592501,-0.18326937387199904,3.0509464067275402,2.340554339290492,12.1058340486337
1.713723114923148e+18,-0.07914621841430458,0.06433330559007341,-0.21014291848069494,3.0466249424803524,1.6353268033680597,11.89372393284252
1.713723114932148e+18,-0.029838153166483177,0.06463304921113644,-0.22792410943710337,-0.19008921085921393,-2.7759087987990827,9.786021134269742
1.713723114942148e+18,0.04243307646206763,0.022169011999265267,-0.2150406506034977,-2.323288957019212,-5.630215401541626,7.669999612257985
1.713723114951148e+18,0.13938351153421777,-0.01789358692219045,-0.23136935511021536,0.1489610101915087,-2.0477768889794694,7.8838407060340865
1.713723114962148e+18,0.1412160242869278,-0.014253435327741036,-0.2613868802651859,2.2202971986843525,2.823641521240528,9.78177304043616
1.713723114970148e+18,0.05299158214556009,0.016499352311334682,-0.286613982547287,2.5135409419558523,4.820704451012985,10.88602110743259
1.713723114980148e+18,-0.08505916116916387,0.05277227848648284,-0.2860370736615275,2.0261578338355832,4.538262926645073,10.82139093140254
1.713723114989148e+18,-0.17460550363805968,0.07766042262551087,-0.30149972146119514,1.3083593389674473,2.340733851874093,9.863402459174683
1.713723114999148e+18,-0.13012329099169104,0.03974753493801196,-0.30907139441242715,-2.0389489773292904,-2.6174531306083297,8.893818191718635
1.713723115008148e+18,-0.054027199011307064,-0.030840765140973527,-0.2888512218459042,-4.2282715338222285,-6.009719675491169,8.917299610866296
1.713723115018148e+18,0.022442857626428104,-0.05839976627644809,-0.25317200399526174,-0.4285540227577542,-2.712265814174492,10.56985959926304
1.713723115027148e+18,0.060191082450986665,-0.014172856741789662,-0.2726112950222558,3.3375895394502777,0.9862010485300371,11.276483314596945
1.713723115037148e+18,0.01780649884828664,0.08727680296243587,-0.2715564629916963,3.333263570923891,0.9977137993775165,10.23464508176134
1.713723115046148e+18,0.011619872735966551,0.133848369486164,-0.2769140033393316,0.5190315452318222,-0.24986390964098185,9.590703222305349
1.713723115056148e+18,0.046265695474378934,0.08576624544065725,-0.27480841659804417,-3.1714124641909134,-1.7062435534818032,8.606193981451355
1.713723115065148e+18,0.04620997265550004,0.011221842713914222,-0.23525071144689022,-3.4820502085355733,-0.30994058186118134,8.906035763999482
1.713723115074148e+18,0.04551346517642002,-0.043617145659747655,-0.2515566620180697,-1.3358985863931816,2.2059271377707845,9.792763160308013
1.713723115084148e+18,-0.03089263222452583,-0.043252778332791224,-0.23077548337626255,0.25726019247655074,2.6954248806374173,10.096810064709581
1.713723115093148e+18,-0.09270865058863173,-0.009718570147627507,-0.23427896178055307,1.3758819333043888,1.9045413976724472,10.218176684530334
1.713723115103148e+18,-0.09152947733316687,0.032447387785731224,-0.22827501379366186,0.885420337059013,-0.12478996143620008,9.479731931633445
1.713723115113148e+18,-0.03340401285562361,0.023968780439275673,-0.2315475540909831,-1.2147958159205596,-2.613355168328838,8.794845575289967
1.713723115122148e+18,-0.012959762432328022,0.008437412751216886,-0.19625217903818887,-1.1335651738871164,-1.786287461873646,9.74856090468028
1.713723115132148e+18,0.0078084280433595825,0.01561674592258969,-0.19841822561026032,0.43057297662278665,0.8321535526659105,11.424389978065186
1.713723115141148e+18,-0.008549771776770246,0.028358250648080268,-0.18909623671669912,-0.5836041879570215,-0.14494720883501122,11.807022799686987
1.713723115150148e+18,0.03199395669496209,-0.00047371710711188004,-0.1723073476833231,-2.9907774017493547,-3.5225326826232415,10.43096720557948
1.713723115160148e+18,0.06843632906882716,-0.024727106476659013,-0.13101935224127167,-1.7926668829533638,-3.1275870534865247,8.995527207153422
1.713723115169148e+18,0.1580432978416269,-0.019849999895751806,-0.14314175140643773,1.1079838389655945,0.2839985797268285,8.436578525243156
1.713723115179148e+18,0.12766132925261292,0.025961612236024455,-0.13197334316440343,1.6159248872938903,2.536393514877415,8.31311563132176
1.713723115188148e+18,0.04869387687782041,0.0669701476913299,-0.13078833005555224,0.8284378104692243,4.324224891082345,9.553503751706165
1.713723115198148e+18,-0.0754102746173908,0.08504733558617696,-0.11758119112623136,-0.7223902145433425,4.756344542822426,10.298555096141289
1.713723115207148e+18,-0.1597852110857627,0.048032543120644436,-0.10310357960570198,-2.8707067248611886,2.803181699757193,10.681255192490777
1.713723115217148e+18,-0.12060547555243958,-0.0586954240197267,-0.08571748688562388,-5.288190440450885,-2.461913259752388,9.362771745940119
1.713723115226148e+18,-0.08398884571127567,-0.12962036186565762,-0.04017445653057032,-3.3704102532667335,-4.247886553098811,8.453076325915111
1.713723115236148e+18,0.018004638236137672,-0.1285542620726834,-0.06158311364942648,1.9654153849799427,-1.1639025093341215,9.14017182601159
1.713723115245148e+18,0.011180933110181219,-0.03910854750617445,-0.06220556971033924,4.475254910670082,1.2255848587084455,10.491389516395062
1.713723115255148e+18,-0.04024237968774847,0.08596141769907202,-0.07001926700050762,4.005896969271646,1.7848841240769686,11.952182639856979
1.713723115264148e+18,-0.03182591267211782,0.11948619588033094,-0.07257162393251057,-0.41657666024545353,-1.1083852996209569,11.861752561389947
1.713723115273148e+18,0.04675945601372677,0.045888290750269366,-0.06284979430754323,-5.820235230152421,-6.482880145334902,10.002047160126857
1.713723115283148e+18,0.11997367956124805,-0.040715317419435,-0.00047476534580986277,-4.135326854736324,-5.025252564554408,8.611799759746738
1.713723115292148e+18,0.21788954574163613,-0.08316236927490563,-0.03187616764801438,0.7295897332941498,1.1143502552502536,8.65412233755827
1.713723115302148e+18,0.1599915878927911,-0.05244423851549987,-0.03248126910837222,1.9280292137348634,4.270092708284775,8.751796450722278
1.713723115311148e+18,0.04456719431099295,-0.011587270130268938,-0.045694740740072175,1.4919222176330642,5.673340716770785,9.552787237409026
1.713723115321148e+18,-0.10197838985308291,0.024416272698213063,-0.01908660512200736,0.915335058577964,5.0283865602831215,9.799199157070419
1.713723115330148e+18,-0.20562261805280638,0.04694042022577704,-0.021401594965725176,0.9333342226233771,3.2861483844724395,9.546797305045805
1.713723115340148e+18,-0.2202567892255041,0.05700266207615427,-0.01833007942068682,0.3243348845782183,0.21712405230115844,9.020517976435722
1.713723115349148e+18,-0.12692786247229468,0.014962647883525058,-0.036075362848798725,-2.8419494303754353,-4.299162906297468,8.52535176882719
1.713723115359148e+18,-0.06161077456919871,-0.03154519615769687,0.009361725209961497,-2.461947676370246,-4.028483240507155,9.506823047882689
1.713723115368148e+18,-0.00729778804255499,-0.035129919684771235,-0.005345274223641593,1.037215024674347,0.2987916256132259,11.620060322199144
1.713723115378148e+18,-0.04402721162212838,0.0031313639654225755,-0.009133698846617034,1.9893034545812784,1.2895816782810252,12.88150219108871
1.713723115387148e+18,-0.0089436848059878,0.00341526626134979,-0.026215957878381893,-0.8455831884271081,-2.8800116486590523,11.991809342824421
1.713723115397148e+18,0.06976469949912223,-0.03026975998968784,0.004042614407363759,-2.8882512444130484,-7.1012015443208725,9.185092548168733
1.713723115407148e+18,0.18788204458702126,-0.03391570248075298,0.011546395874198832,0.5258803469977921,-3.3996348263089393,8.118459797168248
1.713723115416148e+18,0.25466673871286405,0.006596395416155416,-0.017740858632151166,2.834556602618065,1.6080678554085746,8.146346845954625
1.713723115425148e+18,0.18747270237877733,0.06142988395570597,-0.01819044147098868,1.717716219443562,4.449621452509999,8.488743241666704
1.713723115435148e+18,0.014681089003102969,0.07347304753310588,-0.021196468166037607,-0.15556157491431494,6.860914595634533,10.059287106815002
1.713723115444148e+18,-0.15305765051574866,0.04811335179225002,-0.012948524979334419,-1.3210427716193764,6.370355200511396,10.349392882054207
1.713723115454148e+18,-0.27538930488025537,0.0016891096506043278,0.00380314185000456,-1.4314460263485085,3.148488598295589,9.69784143242354
1.713723115464148e+18,-0.20906330714054178,-0.07825710617859599,-0.014155517233106596,-3.3102468042628685,-3.200120876709207,8.713199527851694
1.713723115472148e+18,-0.1358634561625877,-0.12356744586019616,0.0342146449218126,-2.589060904358826,-6.384833943147496,8.402572481480465
1.713723115482148e+18,-0.016784185415764364,-0.094999140429711,0.014120488794881522,2.8762356209601587,-2.4659358781552854,10.175159346644563
1.713723115491148e+18,0.0201317312639306,0.0010850604830957167,0.0026448693692844878,4.946346305896607,0.6748795779385304,11.894646168136
1.713723115501148e+18,-0.009924993626817102,0.10476507382073393,-0.02211710930715063,3.4642984861767374,0.2962208707953878,12.481491353591617
1.713723115510148e+18,0.05195119468045892,0.09696882555017877,-0.02555121617784397,-2.6904296864223562,-4.305988360447957,11.265078899897738
1.713723115520148e+18,0.10849727421257561,0.015291025641507056,0.012161674749027527,-5.082487698471963,-6.524426875095764,8.829262166639952
1.713723115529148e+18,0.21926419140832423,-0.04031043234086618,0.031934428817898715,-0.7066580011350779,-1.564944776729895,8.192080278969954
1.713723115539148e+18,0.2287884376575704,-0.03829339388049872,-0.0031396461476989016,1.524681012215635,3.417310532603385,8.580072239517682
1.713723115549148e+18,0.1367026314896707,0.0005039023829787202,-0.005891148134677655,1.2028508305243828,5.491515891629754,8.76056535771086
1.713723115558148e+18,-0.037930286150020726,0.016794549711158784,0.00016438451142011335,0.14731516248764573,6.4399752939563255,9.802726900267979
1.713723115567148e+18,-0.1746270964590877,0.019712687583950658,0.006886445311724932,-0.041614560356504064,5.242297837422829,10.026680887968286
1.713723115577148e+18,-0.28388537811453207,0.02718907805590632,0.034045355094226175,0.39870333586526285,2.2449378662969397,9.34397657133874
1.713723115586148e+18,-0.21374697931152709,0.004119930247687181,-0.004095933232494486,-1.3916042084508535,-2.4076605384900343,9.01746324578022
1.713723115596148e+18,-0.10163055032870394,-0.04754007851327579,0.047537525981780786,-3.6510221352203764,-6.821638944499264,8.635093284076078
1.713723115605148e+18,-0.017378648613434144,-0.05429791485166216,0.06010032147261457,-0.3368629305724212,-3.414469460340344,10.700158045381286
1.713723115615148e+18,0.03557267125597722,4.041016264683334e-05,0.05279519582808008,3.191786357353626,1.2351305322929536,12.648816077943081
1.713723115624148e+18,-0.007941603273871332,0.06954986371649667,0.050011011737876754,2.2988591782484904,0.5003857738508607,12.560036591058383
1.713723115633148e+18,0.05049675634062029,0.05656747597290516,0.03500953158109986,-2.560548432975636,-4.1753557752624415,10.941895929428656
1.713723115643148e+18,0.10287010099079624,-0.005359824373185693,0.07964051414737788,-4.309997069130317,-6.206398100919565,8.41217899878274
1.713723115652148e+18,0.21207540963958024,-0.04792548002636282,0.08007286469859307,-0.3828104544955936,-1.4197871345355433,7.871454967039939
1.713723115662148e+18,0.2193242645384631,-0.03318765934622128,0.06332689228983684,1.6830126732664226,3.3426574499144013,8.457376652238906
1.713723115671148e+18,0.12590454098739312,0.008645684374999537,0.053548062516788945,1.4179431352564937,5.693312493439789,9.17580198684193
1.713723115681148e+18,-0.039867425342425385,0.037883338085974196,0.07251223389550919,0.17300507333540982,6.405219863242354,10.022899248855943
1.713723115690148e+18,-0.1856812553550145,0.039348939052819394,0.07701143530918791,-0.3624746593349588,5.0155843975528,10.11436942710428
1.713723115700148e+18,-0.2555810658075462,0.016259596005452577,0.09305890607211106,-0.9915337657057334,1.2809228575982803,9.667148246987512
1.713723115709148e+18,-0.16403477852279244,-0.05379918882573939,0.06067170030703746,-3.460419877173524,-4.741821462373738,8.501425097094973
1.713723115719148e+18,-0.07578108506945332,-0.09674452327683894,0.12793189639846733,-2.140156109820796,-5.954437635778282,8.60633771198501
1.713723115729148e+18,0.034489460765687735,-0.06809199581620526,0.08237036523698907,2.9419409850355214,-1.1219307611941016,10.761227206677054
1.713723115738148e+18,0.009731906161166518,0.02837343333034321,0.09672362949415295,4.324205785021452,1.3971012501577882,12.305448511622004
1.713723115747148e+18,-0.018614407377184727,0.0888324410172959,0.06265985800062325,1.6834329221586048,0.22811681166291786,13.174803807856486
1.713723115757148e+18,0.06397429584744321,0.03269164393887428,0.069064509917451,-3.748248879900776,-6.353347936274977,10.962534343275363
1.713723115766148e+18,0.13441571556869902,-0.034085884098193,0.12051519672738664,-3.8439846947944587,-7.166102911410016,8.656240812932651
1.713723115776148e+18,0.28196416176670513,-0.05988370920615273,0.08848121731682823,0.5592534911277139,-1.3072382251799173,7.976796065929972
1.713723115785148e+18,0.28154406369574125,-0.021711570823540173,0.08303772692537711,2.0474471297465753,2.7863341533719663,8.03852406515168
1.713723115795148e+18,0.18976661596303507,0.024525948404880687,0.06289883998123476,1.130863426969083,5.719220549215434,8.414045806716029
1.713723115804148e+18,0.016558684260188743,0.04253043608403203,0.10035768716432027,-0.22766755610874018,7.295516560124563,9.355516247352496
1.713723115813148e+18,-0.15307850188878952,0.03257265382318873,0.09234006276006065,-0.7240645470743217,6.752234363307253,10.009852191359194
1.713723115823148e+18,-0.30169289165718066,0.022740282653217623,0.13338438958997853,-0.11352868466821009,3.84036417094037,9.80936387293805
1.713723115833148e+18,-0.263761379352655,-0.01815800945874991,0.08556242124058515,-1.5478105727916718,-2.067687251387169,9.85511343183935
1.713723115842148e+18,-0.11964436656513194,-0.08705617426311571,0.11570689394645835,-3.934564899700561,-8.243117212868587,8.734272144137956
1.713723115852148e+18,-0.007804518912994742,-0.09306196695142387,0.15001259482247653,0.09149126196091455,-5.721533828396748,9.902169907005742
1.713723115861148e+18,0.11240426267129768,-0.02360503045610145,0.10682481998198896,4.677270653648277,0.026642848166230665,11.875368150336534
1.713723115871148e+18,0.048770163304887704,0.09783244380036739,0.12051472198434396,3.9506907884748053,1.3484096431151422,12.178743019755144
1.713723115880148e+18,0.028170260773453734,0.1354482270173202,0.10263902472635107,0.5285660856717984,-0.5700782731883312,11.946060354571424
1.713723115889148e+18,0.10232833235630627,0.08817745902836896,0.1210768999480536,-3.795145904951287,-4.720109142391044,8.876183971659936
1.713723115899148e+18,0.1471382880638974,0.026111323894963512,0.1663008144746907,-3.648602234851141,-3.383418531014149,7.472335416793663
1.713723115908148e+18,0.2386811537041782,-0.0134514864025688,0.16047502864426275,-1.1722167258150926,1.5397803709598419,7.907754409210487
1.713723115918148e+18,0.14882557887189174,-0.008484341267085591,0.17627996708184646,-0.2979906467478941,4.806633634942215,8.851609028092271
1.713723115927148e+18,0.00839434264935089,0.011216254643023442,0.17674072927870388,0.12407287334384541,6.42386234558147,10.468716416698939
1.713723115937148e+18,-0.15618404310159062,0.03129984789507932,0.19912124743414716,0.12511710747680466,5.1669496452243235,10.225988028335271
1.713723115946148e+18,-0.23074856784798056,0.027353430607942892,0.2026834016475448,-0.8770349552600075,1.4230171624102432,10.179487475024235
1.713723115955148e+18,-0.12163564102306351,-0.03325412063673237,0.20696338632744818,-4.045186023875179,-5.069230695997927,9.122988330565988
1.713723115965148e+18,-0.043716456445900366,-0.08513631425990673,0.25727493028092313,-3.226938423544161,-6.647213621752184,8.988560418656505
1.713723115975148e+18,0.09960980771373343,-0.07233994208159908,0.23044716185034878,1.886493435872579,-1.5215148687832356,10.394993495689196
1.713723115984148e+18,0.08091779641374301,0.009785903508895213,0.2241280526245081,3.5530603926601905,1.4054086088809723,10.915284123502332
1.713723115994148e+18,0.02199514268475449,0.08782995007805114,0.20779978979905406,2.686430996811307,1.8221370423977432,10.896415070384345
1.713723116003148e+18,-0.009383660243821772,0.11498198353823955,0.22243786500141294,-0.11961125072491974,0.3407927138434697,10.794763491518605
1.713723116013148e+18,0.04577306890648686,0.04164786026382745,0.21751922447133668,-4.638971324040939,-3.603177710182798,9.5209956250702
1.713723116022148e+18,0.07108652519614682,-0.03370799291164177,0.2779932697559162,-3.993859756164191,-3.1879349335309386,8.748505854455326
1.713723116032148e+18,0.1424002970598817,-0.0694077978684676,0.2509727833317935,0.22140904656605842,0.8614298284454329,8.99741491385864
1.713723116041148e+18,0.10109559342840091,-0.030182199047839413,0.26216725841707317,1.8688731544079098,2.8395460632821776,9.046260037165839
1.713723116051148e+18,0.021524069629486445,0.028795102174689783,0.24545251428030912,1.9770714322121015,3.7783709224835746,9.506897052250102
1.713723116060148e+18,-0.06951930806601737,0.0709028937268862,0.2553760145847775,1.0806362753823755,3.5567103120211807,9.568483159533267
1.713723116069148e+18,-0.1374333446402113,0.07239189050755629,0.248421607232827,-0.6306112961739802,2.1339207211630846,10.589440054113483
1.713723116079148e+18,-0.0882121481538016,-0.01640696444667788,0.2478955523159959,-4.467031938775824,-3.079662990032676,10.932727456928832
1.713723116088148e+18,-0.0425398836722405,-0.10647411583814947,0.29064504285188414,-4.925891215299662,-6.3634698390656945,10.271520478408661
1.713723116098148e+18,0.06580846685493379,-0.12434814210708853,0.2829430403563515,1.3679696356831614,-3.240277130081714,9.805793932280432
1.713723116107148e+18,0.13604587508663074,-0.04338843795206825,0.251515178736465,5.185702689268411,-0.35788696904322304,8.948855599359785
1.713723116117148e+18,0.1305708780131627,0.08867271033854944,0.22597574644197715,4.562230166451342,1.2554633493516698,8.827972226405244
1.713723116126148e+18,0.0713475174492126,0.17072993611342874,0.22069662748458577,1.7739871850669893,3.1977699273447806,9.885580874770856
1.713723116136148e+18,-0.025602058351136135,0.14916358272439503,0.2079915220174198,-2.1248415875178415,3.8794050765955497,10.895120503912157
1.713723116145148e+18,-0.07331586465637056,0.023434374090349687,0.22920541832177674,-5.56318322716692,0.9026087819231052,10.908372074772515
1.713723116154148e+18,-0.06905760147101381,-0.10649242298848641,0.24873303248010165,-5.288845113302967,-3.2557559566551846,9.537390607976691
1.713723116164148e+18,-0.012754485196859174,-0.14583888451463842,0.2576418125381172,-0.05631576522981462,-2.73441514053805,8.614865973186088
1.713723116173148e+18,0.0714314913886951,-0.09896577631370723,0.22525190608574142,3.8455417203310303,-0.3656565804275853,8.580984985448634
1.713723116183148e+18,0.05805269720534967,0.009895975630345515,0.21551510124940929,4.165198489143087,1.2367472790469038,9.543723821741986
1.713723116192148e+18,0.004770330174737575,0.08746107730282571,0.19472514131624946,2.7373389437527074,2.6849317613080093,11.170755325772621
1.713723116202148e+18,-0.05624152959682916,0.08799501158134196,0.17983669696480672,-0.29416432439332796,1.461740311991606,11.579745809224184
1.713723116211148e+18,-0.0182407604668909,0.0008318421357345412,0.16476746160786399,-4.258784305021886,-3.5006259778255298,10.281556649064013
1.713723116221148e+18,0.013718763127431668,-0.08062050969333744,0.2107330648048001,-3.1457774137032364,-4.7786161922446,8.809844464393981
1.713723116231148e+18,0.12607100757450765,-0.09050365926142337,0.17167525174454276,1.6957678559276073,-0.7477599299750464,8.633211256313917
1.713723116240148e+18,0.11621969552889055,-0.02581634492420025,0.15665444414079277,3.4279996259547123,1.8303985287201086,9.164725004072768
1.713723116249148e+18,0.06421191222519719,0.038541152282818146,0.12388049495626624,2.9446290900706398,3.4979578230990986,9.962441850792375
1.713723116259148e+18,-0.045623212159704156,0.07256351376209978,0.11534716325211158,1.3421945921993068,3.53933099970869,10.057027553676637
1.713723116268148e+18,-0.1176113688208705,0.06108526029542453,0.0983973417212049,-0.18812778790098772,2.193194021784586,9.868666625332313
1.713723116278148e+18,-0.0877338662040605,-0.0033718443148549083,0.10140003318260135,-2.4240017262583544,-1.529605511219145,9.174328333610774
1.713723116288148e+18,-0.05226082048996624,-0.0591455404776472,0.11601781543294999,-2.3202674848958633,-3.208185847223371,9.169959807791223
1.713723116297148e+18,0.005111417111076149,-0.07211060893915655,0.09898753350433379,0.8697499395573702,-0.9287396988872638,10.26030858138227
1.713723116306148e+18,0.004880414112158167,-0.04620629808169898,0.07371149256325321,2.7075481290543677,0.6275085596712235,11.216775853369505
1.713723116316148e+18,-0.013796921639317603,-0.0035483996859608873,0.035079556710226584,3.1619862857925054,0.13378670936318887,11.029404054912884
1.713723116325148e+18,0.017714555351520316,0.020906044014397336,0.012059993946224678,1.7331580889718654,-2.2284095906743313,10.005771166242043
1.713723116334148e+18,0.06098640476217096,0.031530977218527996,0.00468306639274239,0.3968044453562293,-3.355369276520953,9.025563027556316
1.713723116345148e+18,0.12968303181357968,0.04442301970360492,0.0017215789951548924,0.8467597789450014,-0.9791754580508113,8.911061699576976
1.713723116353148e+18,0.13205900243981256,0.04911267654932976,-0.023200088953422984,0.6519803469161587,1.4209684527624438,9.336543228169504
1.713723116363148e+18,0.08028709798609343,0.03600157860455701,-0.024522400207322523,-0.2792085243875771,2.9074641585322376,9.609433699206129
1.713723116373148e+18,-0.014171836468100635,0.005133603174307776,-0.03749840848455234,-0.7694334003724548,3.384168336362004,9.838495839293191
1.713723116382148e+18,-0.08894021063814697,-0.024963539144837118,-0.04925612540799671,-0.5691918154210918,2.6348348701571487,9.901095414764306
1.713723116391148e+18,-0.12031900881538332,-0.03887793200810386,-0.05052862318347115,0.18387274115877184,0.9009415961301747,9.326138375333088
1.713723116401148e+18,-0.09273078113116417,-0.035757808540826275,-0.06853303893229684,0.6850946888039464,-1.1592675116483313,8.794084034000608
1.713723116410148e+18,-0.05033276098620002,-0.017362458654149884,-0.07229367471366382,0.9117609717870913,-1.9363127851915316,9.050173783234927
1.713723116420148e+18,-0.021700349612209305,0.0054217044644090705,-0.08909908075503875,1.2111364176866095,-0.7023558323788006,10.791962634849705
1.713723116429148e+18,0.004018688863889285,0.001606962964129674,-0.10958366130591585,0.06720698983414441,-0.8924693254027457,12.254811327568703
1.713723116439148e+18,0.02169051946367018,-0.03614264349262958,-0.11290137523831056,-1.2860662400687073,-3.2460596989794337,11.712206260141425
1.713723116448148e+18,0.05576839310077682,-0.05023352690652637,-0.0988756408270402,0.47142021544007323,-3.4424765244685536,10.38101760371125
1.713723116457148e+18,0.12505982412774613,-0.017663888709644054,-0.12563533709247876,3.25988242930054,-1.8118557191075046,8.934710685480804
1.713723116467148e+18,0.17407359543023976,0.05816434599536797,-0.14549329752300508,3.4714046891659924,-0.15884316998139206,8.069735052390486
1.713723116477148e+18,0.1704732275501281,0.10529383829215964,-0.16907687836380828,1.509352150677953,2.0301350067587194,8.248698034579869
1.713723116486148e+18,0.10405585980766033,0.09115050247933887,-0.17309861467904836,-0.8486892711757128,4.171761959250071,8.827873618116934
1.713723116496148e+18,-0.02614113494248152,0.026401088554667468,-0.17899972372623527,-2.318187916909948,5.522233833486907,9.906500449605657
1.713723116505148e+18,-0.1562229129919022,-0.04346658998159236,-0.18255695351266482,-1.9863165758992705,4.538334194386841,10.417082100203153
1.713723116515148e+18,-0.22715923109579844,-0.08933126383555093,-0.18074785425485007,-0.7316872701442633,1.2960088401669734,10.502540497825537
1.713723116525148e+18,-0.1405523002681496,-0.11288622124107459,-0.1985050853049928,-0.37787345531862826,-4.347553173201675,9.572336677039884
1.713723116534148e+18,-0.034200939903277196,-0.06445932031730064,-0.1728495730341648,2.5197427158631776,-6.977549522955267,8.816335025993421
1.713723116543148e+18,0.08079192613312738,0.009765642927070162,-0.2379332661970644,4.806844358428993,-3.3328975808763923,9.679028285747243
1.713723116553148e+18,0.12351939951649027,0.09088555051402358,-0.2413765665601875,3.0511828021867524,0.9323433470261095,10.946777331642673
1.713723116562148e+18,0.0658465506230927,0.11302908094116777,-0.281506165329382,1.1010827147065099,2.2063671983135413,11.473921982372154
1.713723116571148e+18,0.008814192173474773,0.07492075287823333,-0.2677538483406095,-1.984180896183157,0.8493434795767838,11.49082060052682
1.713723116581148e+18,0.020989933924852294,-0.027697726394254458,-0.272840091093271,-4.243700016909832,-2.4366380037393576,9.47434708035489
1.713723116590148e+18,0.039566440845064325,-0.09010755117602771,-0.22805064956413434,-1.5340377194058679,-2.358153024769757,8.162188639900242
1.713723116600148e+18,0.11588866034343169,-0.08447630038584146,-0.2701295646657317,2.4894420917431077,0.12395832007901089,8.026527825153233
1.713723116609148e+18,0.10300065945241703,-0.01567146604117391,-0.269374543805895,3.537267982847991,1.8745458638671908,8.61672825279782
1.713723116619148e+18,0.036753484254461184,0.051924717168689266,-0.30080979387642237,2.7955214200772747,3.7344854188853436,10.273442155695797
1.713723116628148e+18,-0.07386462017476958,0.093364470414589,-0.28781443478032653,1.3052774119519885,4.04370213812844,11.236977668350066
1.713723116638148e+18,-0.15013593575128342,0.0863080236423685,-0.29074078089336347,-1.4701885451873105,1.0792807585128354,12.042054018081314
1.713723116647148e+18,-0.04826009942873499,-0.005846114796116308,-0.27562501702704556,-5.245927118422602,-5.9828433568318005,9.831300416548725
1.713723116657148e+18,0.02942062776487193,-0.0788330840964416,-0.2067409015289871,-3.3800531236969396,-7.216767097656041,7.939942652771782
1.713723116667148e+18,0.20728586304895774,-0.07580574454033401,-0.2557652561570578,2.2403333921365847,-1.213718269445747,8.637031748884226
1.713723116675148e+18,0.2055630906550021,-0.0038092171664223825,-0.2500660066762629,3.3296015360209927,2.4071442811156682,9.128069902561263
1.713723116685148e+18,0.12120010299172998,0.06591515567738929,-0.26353718992681496,1.9061779275608317,4.802896793610378,9.901489674464582
1.713723116694148e+18,-0.03392068319514113,0.09934880152613895,-0.24099633520021033,0.3506890772703104,5.784039591086293,10.744736655867937
1.713723116704148e+18,-0.17981050456853104,0.09748402432476427,-0.24153349234003124,-0.8356297673454393,4.258352597874596,10.616894248893066
1.713723116713148e+18,-0.1917138217859925,0.036278687651168505,-0.2315570259997815,-3.803603470022269,-0.7801743466976636,9.943823424749928
1.713723116724148e+18,-0.08527881839918587,-0.08326342391466686,-0.20007199318542832,-5.444759267678711,-6.756354571332576,8.940088944494304
1.713723116735263e+18,0.025861201813103096,-0.09645340091784736,-0.15679290707623592,-0.45780623399182035,-4.107762095961661,9.942893759982882
1.713723116745263e+18,0.10832608670132807,-0.019454042221411356,-0.17617519114187716,3.8184944680343063,0.45279784475001916,10.621326204412426
1.713723116754263e+18,0.07072263357757123,0.09152150454397014,-0.1643272777060341,3.790344429097071,1.3781430983652094,10.072602625333227
1.7137231167642632e+18,0.032406004366956564,0.16569600129020048,-0.15677259379564784,1.6395942903735454,1.6755129903151575,9.937083649654179
1.713723116773263e+18,0.034006198102523984,0.1380080208407742,-0.15630275094532028,-2.520878070683758,0.34183589041323226,9.571984063837679
1.713723116783263e+18,0.03318030012389423,0.04579204292649228,-0.10466555321152829,-5.222328384011816,-1.0034154867442517,9.141897279459046
1.713723116793263e+18,0.027634947967644645,-0.033548185954608054,-0.09344946516247932,-3.794471545260083,0.5799508761904577,9.343032495930432
1.713723116802263e+18,0.013126240422704692,-0.06344744328465972,-0.06906529448979844,-1.67141468923303,2.1873018896089635,9.383462616098507
1.713723116811263e+18,-0.031526893601837594,-0.053489049272000155,-0.07048204788544166,-0.10492127038656038,2.145696663871903,9.082150296788384
1.7137231168202632e+18,-0.06413483697006149,-0.012875867951521456,-0.05071145098221703,0.8279458946925374,1.8188879930910558,9.282272684556839
1.713723116830263e+18,-0.08831462413946504,0.02119702009010689,-0.05817605373613983,0.6413274224911394,1.2517481243138917,9.91128458040871
1.713723116839263e+18,-0.06624333949842645,0.010058726245272197,-0.04748489437185528,-1.1087428878076535,-0.4680145812696143,10.980643479962296
1.713723116850263e+18,-0.029724055994790097,-0.0492267331963964,-0.019750886507257717,-3.26100358649782,-3.4904413869972037,11.537050943705774
1.713723116859263e+18,0.009500036189143848,-0.0692892730829826,0.01923808776499243,-1.6858007038219622,-3.6809502052813126,10.95849476098307
1.7137231168682632e+18,0.07684084998939139,-0.021322973782478702,0.015167545026773562,1.797287710365016,-1.6995103066384425,9.710044524774702
1.713723116878263e+18,0.12191060038820434,0.05845810325666132,0.009435294501049143,2.5819895800909585,-0.5343769796064907,8.45491767204224
1.713723116887263e+18,0.13576223456777514,0.1033882432527051,0.008108022417501035,0.9005109228533944,0.6357136856280682,8.187527946018898
1.7137231168962632e+18,0.09923446103663243,0.09207982477791746,0.014922324594245091,-1.4319718376321717,2.5626949753234745,9.065157945574951
1.713723116907263e+18,-0.0007302854313288934,0.025317644795325767,0.03199635451811605,-3.1205398650219167,4.022344465930468,10.178376757742829
1.713723116915263e+18,-0.09344289154961667,-0.040100152554582935,0.04740959989883953,-3.260671927716587,3.733582022464822,10.313164866030107
1.713723116925263e+18,-0.1441643495792648,-0.0933704539835921,0.06452114315905037,-1.9974205460610759,1.6691604988714865,9.713600714627734
1.713723116934263e+18,-0.11621791618832567,-0.10981381243131144,0.0654658447668641,-0.7100491999395296,-1.382471869675379,8.799531730906706
1.7137231169442632e+18,-0.06363222198418861,-0.07325054521308584,0.0717823990710403,1.1322452257691764,-2.390356993345645,8.906374726699703
1.713723116953263e+18,-0.007846007562662113,-0.00881545444888609,0.04894666033687098,2.909044358671547,-0.9167773725643619,9.921391999287607
1.713723116963263e+18,-0.0032767762742416306,0.05096715033612225,0.03789277176602586,2.494187959312855,0.12682303526501654,11.340004085816624
1.7137231169722632e+18,0.020634086917023446,0.03641818333464015,0.019468118704392127,-0.4543252985758069,-1.3332537779369995,12.08246139842411
1.713723116982263e+18,0.04254099376190899,-0.023332153178601628,0.053502352951025525,-3.0500915639911668,-3.8504768455672713,11.111682434919661
1.7137231169922632e+18,0.09627647600820849,-0.04458736291267128,0.06453682412512585,-0.8363219183385989,-2.662228465234085,9.491140285863576
1.713723117001263e+18,0.15608564000003436,-0.006040855221572076,0.043242083286706784,2.234075409119824,-0.29411884437982366,8.065011463337862
1.713723117010263e+18,0.14897426746593972,0.05381869774076916,0.035093724577408975,2.2116765712344164,1.4080826996368216,7.92405154080179
1.7137231170202632e+18,0.08922870807488076,0.0858287194975599,0.0335684035841273,0.649136945801576,3.6528517908845806,9.226862067621983
1.713723117029263e+18,-0.022080147404034106,0.06958495031699488,0.03823498377476317,-1.2893005569991922,4.857373585077453,10.182203722305932
1.713723117039263e+18,-0.13703257008521075,0.011152012589050717,0.0541738594637701,-2.5945740929396646,3.9876191665337206,10.502767520094677
1.7137231170482632e+18,-0.15399264382089564,-0.06397471133871986,0.06455992992935242,-3.1917450339671634,0.6163030326726127,9.835305499885335
1.713723117057263e+18,-0.10619239250167939,-0.1191750988343724,0.08069079802241821,-3.1614985625091254,-3.441115267958782,8.802140835474516
1.713723117067263e+18,-0.04082159243082776,-0.11267745941089262,0.09122312832545294,0.2302654497248065,-2.9919051361288047,9.275026551029729
1.7137231170762632e+18,0.02316069836751751,-0.04965263027763156,0.056032976934603865,3.787938992141147,-0.3780589771152709,10.21105450088428
1.713723117087263e+18,0.004774587688535854,0.04573232289358026,0.043845756615834466,3.6473510023954376,0.5654938599168666,10.884585150859353
1.713723117095263e+18,-0.00264511241087321,0.07405413000623783,0.020593181787424968,1.5447199790420474,0.3431237707636918,11.737544409354195
1.713723117105263e+18,0.04366874220420852,0.024147783949571063,0.02612857769173311,-2.6126826702945163,-2.821101433705451,10.763774788936333
1.713723117115263e+18,0.06691967816876912,-0.036135869128698705,0.06745236011205591,-3.213652742309448,-3.5544636893352806,9.420053909172726
1.7137231171242632e+18,0.1329020660718683,-0.055066029531375404,0.050265140994561655,0.03465211349973166,-0.6354353947401938,8.776598322032347
1.713723117133263e+18,0.12529539287379432,-0.025116753498186574,0.04966886700295309,1.6662356080946237,1.5000390192448692,8.542814003345011
1.713723117143263e+18,0.08511093765322503,0.024153144799794322,0.04237248463475807,1.7227992490043982,2.9747462070971937,8.935905600376014
1.7137231171522632e+18,-0.0027283730745761635,0.06181014527092468,0.0549808377142785,0.9346494552790463,4.05353088050994,9.427358100175741
1.713723117162263e+18,-0.10163716858637303,0.06248533551076288,0.05285114730087388,-0.3641923344568347,3.9378768341254387,9.9554097685426
1.713723117171263e+18,-0.15231777357219872,0.025607702882970394,0.07236643727354024,-1.5710749056651854,2.005527530397256,10.142135489862834
1.713723117181263e+18,-0.10351825707906413,-0.0500102013543268,0.07081952388591836,-3.655920962392438,-2.181021138881647,9.657662746826809
1.713723117190263e+18,-0.07400139897618885,-0.10332127760420719,0.10420288330923541,-3.2551718341964664,-4.116567027869654,9.680547640806278
1.7137231172002632e+18,0.002481615377218086,-0.09863462636530472,0.08779710624562742,1.2728194045272094,-1.6616630935628127,10.50581958344405
1.713723117209263e+18,0.010888947055245395,-0.014700620733400716,0.06541406875902452,4.333166209648482,-0.08112135532159868,10.748516053378998
1.713723117218263e+18,0.023783465172343983,0.07339787796082413,0.04371854401279799,4.005042130551277,-0.35303752727666393,10.555378890415216
1.713723117229263e+18,0.07720413826678048,0.10047518999278998,0.034167524935325794,0.597497530650342,-1.7822846344813257,9.693439638771737
1.713723117237263e+18,0.08940528729222502,0.07331678286153402,0.052601854184677437,-2.636315853027079,-2.1932961819463856,9.30757987767354
1.713723117247263e+18,0.11105384556112834,0.014908159670307744,0.0682890279886035,-2.5794219636474587,0.3549177731113504,9.3291511556578
1.713723117257263e+18,0.07147617246738139,-0.03094829922175492,0.06467681202681709,-1.5833517283796654,2.473891194264945,9.471711787139355
1.713723117266263e+18,0.011918566545449049,-0.05095948786994883,0.07412834982358266,-0.8156463103790282,2.917842012127384,9.425798852195621
1.713723117275263e+18,-0.056383459506732965,-0.04230247509637817,0.07851640970460766,0.35624146811549784,2.6973369769878777,9.32941573076705
1.713723117285263e+18,-0.09895756698519655,-0.00797212578425746,0.07762322540081563,1.3454099822724708,1.6985325830494375,9.304126120211622
1.713723117294263e+18,-0.09728791705095381,0.029564487397726276,0.07997916747198047,1.411762399749491,0.3787206991341291,9.621518885640945
1.7137231173042632e+18,-0.039242198226906264,0.02118724331910167,0.0634254793890575,-0.9347766107615626,-1.8942531314090205,10.364460361271924
1.713723117313263e+18,-0.009978162356471629,-0.026902726795036008,0.08345505563132848,-3.38645295749729,-3.4027598408921387,10.817283149658365
1.713723117323263e+18,0.02393150012721472,-0.07495844692227424,0.08701937752653977,-1.4619358639724964,-1.6002157828154588,10.742983543779985
1.7137231173322632e+18,0.04601955994807026,-0.0622026944595033,0.06632944524654423,1.8575173281399535,0.015287847804845088,9.871865015661559
1.713723117342263e+18,0.05133793064466899,0.0051513203832762935,0.058724574546762665,3.071092693214247,0.12032037408510579,8.916758948929267
1.713723117351263e+18,0.04695811830882651,0.06887905557746019,0.04745291578036357,2.579816022149497,0.6688384282157787,8.933622511387735
1.713723117361263e+18,0.01949141956618554,0.09869412688277804,0.045730245335383723,0.670827624504159,1.5795627358424214,9.662278835782885
1.713723117370263e+18,-0.006061541679794912,0.06339985834527574,0.051222403195561636,-1.869500635211894,1.622483420473949,10.324020001333828
1.7137231173802632e+18,-0.01967222856590691,-0.02566099192212788,0.066954400009779,-4.182885536901615,-0.15224882425164635,10.044128205403233
1.713723117389263e+18,-0.023592329874449,-0.09604154464535482,0.0895587295655975,-3.3881292069291367,-0.8033325008462905,9.43453586855839
1.713723117399263e+18,0.002939756786563271,-0.10676716259230694,0.07996407976788186,0.1038303136269587,0.08878760658639971,9.112765281926587
1.7137231174082632e+18,0.0047236129563343774,-0.05012263816081386,0.07954413328449753,2.460550940316263,0.5877159884643316,9.169279026558975
1.713723117418263e+18,-0.014505017974595451,0.032670254702601785,0.06730599221848158,2.932932726421802,1.2084641613237548,9.82418601051221
1.713723117427263e+18,-0.04297616349727835,0.07462933630158523,0.06128111885227244,1.557478931034678,1.3607264212116195,10.980971844150666
1.713723117437263e+18,-0.021540728221729213,0.02642901620274939,0.05675429413398447,-2.347769138121002,-1.217311253628347,11.27795818705149
1.713723117446263e+18,0.006256431123868129,-0.05901755237722056,0.08760405346170659,-4.688168357631396,-4.049875698540458,10.077267155425481
1.713723117455263e+18,0.060921264542163366,-0.10131284944758182,0.09850580673307646,-1.1355428365781473,-2.455953753320313,9.117845416734546
1.713723117465263e+18,0.115592565583085,-0.05936534083621148,0.07458099477941742,3.037811078537635,0.4083572744111702,8.56532605408113
1.713723117475263e+18,0.07707958594014931,0.037222751107809204,0.06759097722666378,3.6272536694167887,2.053808435892043,9.106147637726885
1.7137231174842632e+18,0.002045982718186475,0.10038085460738017,0.056484677275393955,2.2673830407681654,3.5477496629671235,10.45251340261159
1.713723117494263e+18,-0.08260430701541163,0.09488069519625195,0.06057481933305111,-0.3559981265226169,3.2075839943577313,11.186407009336879
1.713723117503263e+18,-0.08518704633379397,0.011556811139647367,0.06954405439409848,-3.9841912020955856,-0.4548122446564405,10.548379568242725
1.7137231175122632e+18,-0.03791972981207947,-0.08475725684432503,0.10423212048379647,-5.176069503598743,-4.471907129629923,8.877818078194359
1.713723117522263e+18,0.04709093750370132,-0.10740395991530047,0.10929071238838896,-0.69254147463877,-2.7424778839109796,8.22991897087798
1.713723117531263e+18,0.10478535928214512,-0.05443302189036099,0.09031745334731758,3.1894576643946424,0.7759526442959687,8.784933941152941
1.713723117541263e+18,0.044139718363279505,0.044640566601711236,0.08142781781083216,3.46570106675219,2.7912884634497868,10.215484412963765
1.713723117550263e+18,-0.04200203970906029,0.1030107066493555,0.0787504772063708,2.0152451788608445,3.860921208073401,11.75029088908991
1.713723117559263e+18,-0.09913528446760231,0.07536723433178462,0.07080783579050576,-1.4001936737899263,1.6791352080640445,11.836276690679885
1.713723117569263e+18,-0.03496685988971256,-0.053903300391818544,0.08904266642811001,-5.19847950653855,-4.386296054596591,9.449221935207767
1.713723117579263e+18,0.0374810529396887,-0.11599681985678233,0.11809630219515799,-3.1536331010555654,-5.166080876251789,7.9765312581308265
1.7137231175882632e+18,0.15644757856886576,-0.09770646580366402,0.0874156759542584,2.1053445127881245,-0.7907040568418817,8.249009273208443
1.713723117598263e+18,0.12693298425381389,-0.008687887163575719,0.07637804539705167,3.6459208501848943,2.357045002107256,9.306531284053376
1.713723117607263e+18,0.03828624128417468,0.07068458646376173,0.07512892390783182,2.6661335504730306,4.2647766585058395,10.992634558816295
1.713723117617263e+18,-0.09875058849223119,0.11171015054708211,0.09283739963635784,1.2577969590071219,4.460972696682773,11.373702173536856
1.713723117626263e+18,-0.1614053441163572,0.08348825662616262,0.08753664720349864,-0.592242933732995,1.7237130733949098,10.794929565448083
1.713723117635263e+18,-0.06787730930011596,-0.011050934576331013,0.08850413825190237,-4.191199196712362,-4.562371016448009,8.349273039551196
1.713723117645263e+18,0.030396855503485663,-0.06823815116854398,0.1324235077420754,-4.07014493526607,-6.047433063806251,7.666938694189025
1.713723117654263e+18,0.14591998540805187,-0.0647168134342588,0.09980129274136414,0.9029772230249118,-0.7290507400112872,9.418103631322008
1.7137231176642632e+18,0.08035384131664539,0.008665366073032667,0.09511437112817182,2.9702074589766756,3.5288182782349145,11.348604818897005
1.713723117673263e+18,-0.038669289426893766,0.060246551980880844,0.07342144835370998,2.142148096536503,4.581431972850742,11.979922259991227
1.713723117683263e+18,-0.13010305556194773,0.046967174757664355,0.07974409901279714,0.3093815247311664,2.130766914146451,10.81322741571974
1.7137231176922632e+18,-0.05893869989234013,-0.03735637571728155,0.06225071298024683,-3.564311905909049,-3.9875880564102073,8.976822526827505
1.713723117701263e+18,0.02772670185816529,-0.08710849032830091,0.12081062410403155,-3.8694740505334035,-6.8832660164611905,7.674849562626275
1.713723117711263e+18,0.1813914427844623,-0.07657001344682837,0.08989247550194368,1.3347207268349506,-2.1639696694110704,8.427778721631608
1.713723117721263e+18,0.17858819583053956,0.0021948999181132978,0.07717064332494664,3.4442957136829455,2.408033615058778,9.678169293797781
1.713723117730263e+18,0.08124944323853711,0.0668263313077417,0.0744246624287944,2.380578002448638,4.834253912009931,10.818715501024737
1.7137231177402632e+18,-0.08845604495113049,0.09487506350403672,0.08957473806837588,0.9135104111547305,5.561659685452327,11.210428049794281
1.713723117749263e+18,-0.19332468244276527,0.07813951318234191,0.08877384136804412,-0.2979230822251803,3.4696978230920212,10.572656250688771
1.713723117758263e+18,-0.149388828245959,0.010386932205693158,0.08726086049325693,-2.7921402699634665,-1.9747811455645918,8.821901802825172
1.7137231177682632e+18,-0.03849654147130542,-0.06585059733434985,0.11082933589807584,-4.566500789269824,-6.591886302172094,7.9507759018100685
1.713723117777263e+18,0.061519327463181055,-0.07667330140471927,0.1260045729941758,-0.6277002364110131,-3.2483224662319703,9.572550797914378
1.713723117787263e+18,0.08905381747198512,-0.020070034683220658,0.08298057623156312,3.331706509928547,1.807036205760377,11.406316722859664
1.713723117797263e+18,0.00020161764824536826,0.05326471472674449,0.07796006787630474,3.1235377534561843,2.478706479524371,11.303166743523724
1.713723117806263e+18,-0.05397085304587919,0.07522191066184482,0.06232351145518876,1.788344986734024,1.4480456288529329,10.704210983474475
1.713723117815263e+18,0.004814455035625978,0.033894777405741,0.04614596595041671,-1.6174911898249513,-2.4568896874704182,9.047630121486868
1.713723117825263e+18,0.0588553435977038,-0.014963563900086267,0.08666481505371423,-3.1610420475647034,-4.188968836981723,7.873099468543736
1.713723117834263e+18,0.14280151202276248,-0.04240050883385981,0.05917217261135645,-0.5298219456474641,-0.6298095054361055,8.507632211166737
1.7137231178442632e+18,0.10405161943851757,-0.019275290514488896,0.06699498902780894,1.2396976618617703,2.946603724647353,9.732661294411937
1.713723117853263e+18,0.005348703648644017,0.010937715198238,0.03803777017965834,1.657330044315482,4.581236484644901,10.63195462933078
1.713723117863263e+18,-0.12378264656054955,0.038197310718011204,0.04954485966165273,1.414733975234777,4.054848450208548,10.65976636030258
1.7137231178722632e+18,-0.16849753745394586,0.03396477073404423,0.028447826162636615,0.8163389208116107,1.4886182147702685,10.38146756107167
1.713723117882263e+18,-0.05940856668063044,-0.019254814930018783,0.035529372989423366,-2.469729789728333,-4.247165950665034,8.930393275297044
1.713723117891263e+18,0.004739902201199926,-0.0520237521023524,0.06684217558657737,-3.0052110843777777,-5.878146250662422,8.967938511839813
1.713723117901263e+18,0.11802011491301054,-0.04728460433163729,0.03827345983371769,1.1203376008244719,-1.2363273931157757,10.34495257892104
1.713723117910263e+18,0.07115049228268323,0.010971313786435422,0.029256384255292353,2.881241409479304,1.9884924344764756,11.214062104385796
1.7137231179202632e+18,0.003255570978695829,0.057331842116600626,-0.0036008291912832816,2.4531625279188742,2.404750148279326,10.944671726598482
1.713723117929263e+18,-0.03747282517213941,0.06972036077430746,0.003922400570409658,0.9667682329854924,0.9915973314310309,9.685465914790468
1.713723117939263e+18,0.017365581479268623,0.02065282218902502,-0.019275364336987007,-2.0191073517273974,-2.0122224055318894,8.483037515353354
1.7137231179482632e+18,0.04573058955637894,-0.019992087395309225,0.02370420913484301,-2.850819272197086,-2.3307987423267185,8.493924115187017
1.713723117958263e+18,0.10019040542380067,-0.04710654665507048,-0.004528538730468329,-0.5373113906906655,0.675620841846631,9.24802645481974
1.713723117967263e+18,0.047760140940137884,-0.035387611316376556,0.010247666624759576,0.6098484575816671,2.611098171976326,9.76537197729254
1.713723117977263e+18,-0.047546511345319765,-0.015503711109374709,-0.004090478598739267,1.088428752672766,3.4131431659874134,10.777291382350324
1.713723117986263e+18,-0.1186589649323424,0.012420421405735764,0.004506602826580641,1.302472314215344,2.4505081284194863,10.617074625724872
1.713723117995263e+18,-0.09705910200348475,0.016642196264044895,-0.0031272769325922352,0.20652647765308638,-0.7386952385461681,10.135170834160098
1.713723118005263e+18,-0.008874765185692402,-0.010802984237741741,0.006231381334644196,-2.0902557032492575,-4.753913688985444,9.195084503544917
1.713723118014263e+18,0.05687049291509775,-0.016679690632007263,0.036288255715571587,-1.3596826324727986,-3.6855924563866735,9.471239732868778
1.713723118025263e+18,0.11750331681046478,-0.0038446337182238095,0.0008125634091635959,1.0682284936530113,0.5602676722463386,10.360545633624497
1.713723118033263e+18,0.06419490498169579,0.019640483593176883,0.010226152927524735,1.1294358014767252,2.0894812796394393,10.327646332827237
1.713723118043263e+18,-0.020313608205534652,0.02834486690477541,-0.005055028995710615,0.4483919332886068,2.3582154447327315,10.37596044896772
1.713723118053263e+18,-0.04550780645895333,0.0121801160809572,0.0034960100417987324,-0.2689882425489791,1.0627871135614593,9.559738486385186
1.713723118062263e+18,-0.025168514600738108,-0.017737162681358675,0.0007045602353995851,-1.118267758268566,-1.0211930316330595,8.640409231292647
1.713723118071263e+18,0.0028232103037615997,-0.027295653812917736,0.010816996789303519,-0.7066423458849694,-1.3903219153796536,8.906700422755495
1.713723118081263e+18,0.04348740541548216,-0.016797268060472086,0.003692397986993287,0.6115768668827612,0.017364403914269175,9.53090952593322
1.713723118090263e+18,0.02917842080434527,0.0025889980134622065,0.002130678952971827,0.9233250587499042,1.131555292994593,9.829411124781789
1.7137231181002632e+18,-0.01275468790929437,0.019711422710623816,-0.00026531296649853395,0.47182910422960134,1.7921040760746645,10.165154360791275
1.713723118110263e+18,-0.05471007982781704,0.017777958215198477,-0.0020014132350826006,-0.19910313640496177,1.4828761272092394,10.348635510833233
1.713723118118263e+18,-0.041121850649917746,-0.006178624287326666,0.0003643744754805001,-1.308166993371952,-0.23252702974848702,9.930712452674053
1.7137231181282632e+18,-0.01860064661685458,-0.03168247283799131,0.014069055755066987,-1.7775015141456996,-1.8116815741262788,9.303103983177715
1.713723118137263e+18,0.015805201795339945,-0.032739366337754004,0.01506955877256526,-0.41350826951770653,-0.8379437468098284,9.526940570192423
1.713723118147263e+18,0.013107677719998878,-0.01869011080572293,0.0068922305595484935,0.7527418604716041,0.8018643921077044,10.299110414288068
1.713723118157263e+18,-0.025061601661555688,-0.008898098763273993,0.004468347914219347,0.7366048200509739,1.1084798977810064,11.050523364707546
1.713723118166263e+18,-0.019099743442790758,-0.02553870534304566,-0.00381884070350675,-0.12775845624002707,-0.49741627891260537,10.757946024730293
1.713723118175263e+18,0.012165552648350711,-0.046107275630910945,0.007166569311485656,-1.0465497037534413,-2.9638752448085692,9.682481616149342
1.713723118185263e+18,0.07832168077671302,-0.03445957770362159,0.011060152407955423,0.6524429049656921,-2.408886938856162,8.871497537008045
1.713723118194263e+18,0.13002391410195954,0.014304847961261464,-0.008221497254945033,2.5163820001778228,-0.12274016482543199,8.653095646166882
1.7137231182042632e+18,0.11222493933841207,0.06367164030343343,-0.012971651495425307,1.702017192207792,1.7337451575245855,8.990330299599819
1.713723118213263e+18,0.0466934315320827,0.06963670845004581,-0.0142505050835357,-0.09470348139316727,3.4868671885711677,9.725053844233283
1.713723118223263e+18,-0.05895083535139245,0.032340513846455976,-0.010261390250689612,-1.7604489873969067,4.032950349392466,10.185925289051816
1.713723118233263e+18,-0.13753016732205084,-0.030744026692040956,-0.0007204411805678227,-2.46036501697747,2.7832063925472945,10.225984811868894
1.713723118242263e+18,-0.13178368606820037,-0.08901239236786551,0.008595373891814995,-2.4552346570369346,-0.41010419658306285,9.545557975336594
1.713723118251263e+18,-0.08693217168787898,-0.10277280795838792,0.02611160580922918,-1.0428450947076389,-2.9074428615634904,8.965456931043454
1.7137231182602632e+18,-0.017660422166697432,-0.053910936499135496,0.023873351503428727,2.167135177152771,-2.153383707726989,9.388416746320027
1.713723118270263e+18,0.017161073162433673,0.03280739263799198,0.007164199209484964,3.748788074807785,-0.23276718952152814,10.504867438495403
1.7137231182802632e+18,0.012827441113775699,0.07643400088127938,-0.006884399954133117,2.2234292600345356,0.21929439053797273,11.647201256131243
1.713723118289263e+18,0.0373380207527864,0.0380299454340464,-0.010244509501194104,-1.5634987403747642,-1.9495288056795164,11.370743700464462
1.713723118298263e+18,0.05729754381316062,-0.01883949477246716,0.019185289176452177,-3.2026129877808867,-3.654171992446403,10.14256648201376
1.7137231183082632e+18,0.12589299517734318,-0.0388518724648682,0.01649590067255539,-0.0356284368088179,-1.4329726918128887,9.039267146033858
1.713723118318263e+18,0.1532434385064484,0.0101397938041361,-0.004880112397309545,2.393439005509783,0.94872550167987,8.159357217077872
1.713723118327263e+18,0.12274888351603355,0.05984077489173445,-0.009815225247320673,2.000627491585797,2.400048721769968,7.962259535167975
1.7137231183362632e+18,0.03868717329513677,0.08022015625782099,-0.013345306337721014,0.46510294914830297,4.220761595476837,8.797674009465256
1.713723118346263e+18,-0.08253539593586834,0.05906962957102824,-0.013141551185923169,-1.153272478259173,5.076142231638938,9.855693390353753
1.713723118355263e+18,-0.1838869608962861,0.01702994432645833,-0.0006060855892989344,-2.106218381141162,4.011491938603313,10.20025938637219
1.713723118365263e+18,-0.202311961413284,-0.05235417262857436,0.006891581327077716,-2.5699154039378143,0.6845702023791309,10.052417859667647
1.713723118375263e+18,-0.1361683364323907,-0.10716667688737537,0.028289922006620716,-2.805034029071511,-3.7602749291467656,9.444368675280293
1.7137231183842632e+18,-0.06823600718015238,-0.09052390450714581,0.04162625286802293,-0.09979675290403145,-4.117148147392502,9.957464824141308
1.713723118393263e+18,0.005641123237625584,-0.02015919198847341,0.01838292684234691,3.5614404413123926,-1.2928037776949062,11.05353654967297
1.713723118403263e+18,0.01714839841207339,0.05938993328739285,0.002533058005880817,3.5547215327868296,-0.5278887714413276,11.794563831075873
1.7137231184122632e+18,0.06687606984656111,0.06304488748545312,-0.012647553635358365,0.4859888260547989,-2.6830260579941383,11.195091371546425
1.713723118422263e+18,0.1065856683814256,0.03904143456250649,0.021358387627003563,-1.7928061395260442,-4.19925292878757,9.666911616425518
1.713723118431263e+18,0.17949686144004978,0.02946663972495471,0.018666242654105027,-0.1508977234147142,-1.545374434840769,8.994220995607703
1.713723118441263e+18,0.19786633950759547,0.05216619415099054,0.002653376592221875,1.048889178195509,1.6852635165828822,8.278847513502004
1.713723118450263e+18,0.135905667174299,0.05394558337650074,0.003900159117553847,-0.07381623746742155,3.6427255087280255,7.97116546338005
1.713723118459263e+18,0.015628331331562897,0.02941266272735035,0.0037312380394409813,-1.1486900540689042,5.521851691945811,8.77600810783743
1.713723118469263e+18,-0.1341730008689311,-0.006617492009997263,0.0016949737780743586,-1.4385733013674984,5.922394898188532,9.882142926527113
1.713723118478263e+18,-0.24578101184125783,-0.03236639160374461,0.007777814419153803,-0.943993792313895,3.9814867407895917,10.098450343723059
1.7137231184882632e+18,-0.24400341048723734,-0.05443937418628199,0.009079953540701754,-0.4756999944874356,0.05271292251491833,9.881239011867677
1.713723118497263e+18,-0.1381668938252986,-0.078023927878007,0.011313279818001658,-1.4936479101590647,-5.288475063063101,9.295491982629612
1.713723118507263e+18,-0.034837258590347746,-0.05181628746392068,0.040686234014340274,-0.16451747213047793,-5.882657083638539,10.048484212407473
1.7137231185162632e+18,0.05613036530323101,0.005919056683412135,0.008057464466438225,3.1317174888978507,-1.6191659436017038,11.475268771130738
1.713723118526263e+18,0.04100141102750272,0.07864173357660487,-0.0006652433937685592,3.280713074938473,0.6805647268428084,11.960051563631849
1.713723118535263e+18,0.04853492571056233,0.08257904710063164,-0.02468924263193092,0.5009841088569608,-0.5359287122758906,11.198743921239545
1.713723118545263e+18,0.08023068017305376,0.030031531755994878,0.0033039185731392755,-2.706075744753838,-3.0169277319049668,9.059718280406027
1.713723118555263e+18,0.12465686575327578,-0.013207664304807385,0.01683677141737723,-1.8283817642182931,-1.5619656685250156,8.361227714729171
1.7137231185642632e+18,0.1543696406729827,-0.012289418086458403,0.0002043782117335856,0.6699789429652349,1.5147303560675287,8.319047175792205
1.713723118573263e+18,0.0947680621655288,0.012671972119620867,0.004211051336448364,0.9274622023410802,3.282757290922895,8.350553655583573
1.713723118583263e+18,-0.019711694980203524,0.029275101755589915,-0.0009044405409547854,0.5486596639443626,4.866916732369756,9.462939062211069
1.7137231185922632e+18,-0.137215888078627,0.032757649733113896,-0.0037416512860918997,0.02298509969686216,4.89497702875164,10.142427731278932
1.713723118602263e+18,-0.21643908024169672,0.01895637856656615,0.0038671554825662723,-0.44802453797724856,2.774065462938311,10.238589619704928
1.713723118611263e+18,-0.17146750944410455,-0.025407136868887306,0.002141352603058793,-1.8499149958748404,-1.7038364947202969,9.685219533713788
1.7137231186202632e+18,-0.08817926883821565,-0.07041581682281989,0.02987696834183386,-3.1433747229411906,-5.691842111818813,9.162237421255952
1.713723118630263e+18,0.005093998946149149,-0.05709123943869879,0.03926750565698692,0.15896864973196642,-3.1979219222796833,10.214881850574002
1.713723118639263e+18,0.05212234467738734,0.006501547154589643,0.005225458742884978,3.576841754700816,0.6054486164908871,11.1503973535264
1.713723118649263e+18,0.0006618947219870159,0.07705004089048881,0.0005013328630473911,2.8508754022509106,1.1241732180634314,11.193673169022698
1.713723118658263e+18,-0.004797475734402314,0.07171359957939313,-0.019724272328617055,0.07423307851651387,-0.5355256259612368,11.04109381958073
1.713723118669263e+18,0.0529392935667493,0.00466504722234099,0.0022353906467391287,-3.054685875863295,-3.648455199664063,9.169173346069327
1.713723118677263e+18,0.09745569985262396,-0.030153465453572507,0.024844966291391695,-1.8600171046415483,-2.3383697624431505,8.594024536777159
1.713723118687263e+18,0.15755491018220522,-0.02602928560347893,-0.014399005536227256,1.0310586385304101,1.224786941630513,8.524611250158054
1.713723118697263e+18,0.09242747888526821,0.008921509109367856,0.0020970259775466484,1.2250651639418781,3.1195657380018647,8.447575385753668
1.713723118706263e+18,-0.02449500435494952,0.031942501210300456,-0.01625705517648852,0.8586573595132617,4.874928698227497,10.044329793961968
1.713723118715263e+18,-0.1426493302014142,0.03664419374381367,-0.011768725094696971,0.14923005663418676,4.721861081372439,10.589654657869222
1.713723118725263e+18,-0.22203858486044112,0.016447127134949106,-0.0027619386616482802,-0.4485318615358584,2.336665337870155,10.436113863245087
1.713723118734263e+18,-0.13935168709868834,-0.04303946514830268,-0.0038455254452336163,-2.51701439950049,-2.9674522756819535,9.40322818391432
1.7137231187442632e+18,-0.07258622617594315,-0.06754476718090596,0.0461973686878856,-2.673607557717504,-5.859925455870431,8.976545187542335
1.713723118753263e+18,0.04019775001716214,-0.03905151443653263,0.023253831981602278,1.492750691899788,-2.542453569219036,10.240919401060475
1.713723118763263e+18,0.034179322516939566,0.04542511470534061,0.01295275330876949,3.4871058593123534,0.7130547365855291,11.392807500917872
1.7137231187722632e+18,0.0031845243400577964,0.0881766208962011,-0.007712786472588273,2.242484337747873,1.0853036984591458,11.740631061508775
1.713723118782263e+18,0.03843560334965369,0.05723439918072057,-0.00828542628907521,-1.2572559353472144,-1.6500690043939765,10.02300099286581
1.713723118791263e+18,0.05152991543078331,0.00953481706227207,0.02557248312647754,-2.866487807118473,-3.031119984124438,8.599269761429596
1.713723118801263e+18,0.13431476343353418,-0.015880495255316117,0.01459529656887562,-0.6706605306551148,-0.5544361815310739,8.024365501630307
1.713723118810263e+18,0.10469887988185442,0.001765332218026305,0.008803222103672688,0.7441333408904719,2.1024835029636817,8.472953632399332
1.713723118819263e+18,0.03552785200915876,0.018399637325922823,0.0005355894379743124,0.7174315921605571,3.9574365483191403,9.542506871275165
1.713723118829263e+18,-0.08912529826437066,0.024899261957267556,0.0004332332662133043,0.23264920494922015,4.750414817209323,10.277912065165676
1.713723118838263e+18,-0.19294661465959112,0.014360313392699364,-0.006280584510655506,-0.1901338546443873,3.4741767433079636,10.601630636058564
1.7137231188482632e+18,-0.1692780578737937,-0.02999844741058359,-0.0007395002497050128,-1.2968924440842884,-0.7735219415467156,10.153183890286384
1.713723118857263e+18,-0.0948673056142093,-0.06771698302180341,0.014877308922822411,-2.7045060197205952,-5.5290898483430695,9.19005341905765
1.713723118867263e+18,0.012651929122444254,-0.05394509392518672,0.03611950643328677,-0.0459526705172199,-4.482891864768524,9.36530149096469
1.713723118877263e+18,0.08549951418846613,0.01847876732128572,0.004436717068771131,3.5523274479695908,-0.3163053820157575,10.546099167094464
1.713723118886263e+18,0.053456229864402544,0.09818284066004657,-0.0017473842332752726,3.3337958360509523,1.5687538992103947,10.969137177562612
1.713723118895263e+18,0.00017881438697007362,0.1231269412455526,-0.013953875632673935,1.1557246439854352,1.8335524533902123,11.33458120075729
1.713723118905263e+18,0.014772809705103385,0.05016282909571704,-0.009644498364843577,-3.207955569534015,-1.064808599325803,9.929386125084324
1.713723118914263e+18,0.025734590485511997,-0.03138461168183097,0.020458452385623657,-4.653513419343107,-2.786125587503631,8.522597192859008
1.7137231189242632e+18,0.08301119565916773,-0.07933330061336409,0.01036641762222997,-1.3591137590970963,-0.4388479163119776,8.318117144256089
1.713723118934263e+18,0.06499524618134207,-0.05716894817028971,0.006294305003371117,1.2149095543990387,1.9873726574301385,8.655229794983157
1.713723118943263e+18,-0.0046728473129313015,-0.007318950821671302,-0.00885048567947199,2.199980943960853,3.3590438747596494,9.537092573316038
1.7137231189522632e+18,-0.099881121017528,0.04057303761773588,-0.011971153662889408,2.0924150225345164,3.854942310100163,10.37028424166754
1.713723118961263e+18,-0.1641400498055603,0.05412995200413599,-0.02106747345754242,0.9419202755013485,2.602085564812717,11.367732031930537
1.713723118971263e+18,-0.10217954242724486,-0.01666095393536403,-0.016091204500084805,-3.21518262272777,-3.0004735710977446,10.944554891703035
1.7137231189802632e+18,-0.025933443654456868,-0.09386638066986347,0.024698576492620146,-5.376628135849916,-7.227885040358394,9.684600585528749
1.713723118991263e+18,0.1071597766453803,-0.10486991587325517,0.025648333972109437,-0.14644413265221892,-3.8359973321626835,9.352307247721518
1.713723118999263e+18,0.15747363120453667,-0.044836888502412374,-0.002815092986668814,4.138493710231092,0.38511338924972105,9.260270749892282
1.713723119009263e+18,0.10098469916940028,0.05899743452985737,-0.012088842626058931,4.003926995999545,2.4649627301101167,9.617898069272275
1.713723119018263e+18,0.013760395451834996,0.1197701101463408,-0.01850243312423669,2.294792708547639,3.803740189069043,10.159118285870225
1.7137231190282632e+18,-0.08439990599784372,0.11617500292898306,-0.012464409996754456,-0.34778988210371353,3.360345331587645,10.137577932584689
1.713723119038263e+18,-0.09738799109473759,0.0285967437934805,-0.006079290185775378,-3.604885993487131,0.5519613351318772,9.879329934589201
1.713723119047263e+18,-0.0627118897705258,-0.0689221990752932,0.011954620176221994,-5.10755361441613,-2.8442121203755324,8.873238717598383
1.7137231190562632e+18,-0.01607686797827818,-0.11806137519265136,0.026189944849209994,-2.0508097727801946,-2.3260833313097784,8.543236475322992
1.713723119066263e+18,0.036692527790006035,-0.09598141785432364,-0.0013612826071683988,1.8550515898202689,0.5263795461230367,9.05262984348595
1.713723119075263e+18,-0.0009808608426234494,-0.023137538545295832,-0.00810280398465107,3.094279567629073,1.9600929387279262,9.840166033315702
1.713723119085263e+18,-0.07291812800971968,0.05062429441260759,-0.012733315422583831,2.7902041543891967,2.8324878726480356,11.255852351955529
1.713723119094263e+18,-0.10431170098693861,0.06763355681140638,-0.01451141723439151,1.0469999899851752,1.1474907801770786,11.680898972477149
1.7137231191042632e+18,-0.02731952130392035,-0.003483161166622128,-0.0024510551492520085,-3.794571939470881,-4.527193133521631,10.594799740223902
1.713723119114263e+18,0.05210593562439357,-0.08215590117608207,0.04123853577207643,-5.187624764395096,-6.84004849337659,9.382212068391137
1.713723119123263e+18,0.16768147809482709,-0.09991418742298751,0.03179156434958439,0.04809547944832833,-2.1653323272835983,9.229571192567333
1.7137231191322632e+18,0.17746193167732233,-0.04414312926929127,0.001939102065927751,3.597480891557916,1.953062300109803,9.270703714411653
1.713723119142263e+18,0.09960489803658262,0.03618895089941187,-0.007905184362153471,3.1811681863710373,3.451067647899702,9.300718340038104
1.713723119151263e+18,-0.01705873468785407,0.07967741146508418,-0.003635972491276662,1.4728735755198468,4.342552545236808,9.63322775867701
1.7137231191602632e+18,-0.11388309825496032,0.08336602529902523,-0.0001615062649503703,-0.052266425217588695,3.8798273062831106,9.750707775241468
1.713723119171263e+18,-0.16041335241053298,0.037584074415656026,0.00522369232341276,-1.4965675755404255,1.5880830359915097,9.296437216923955
1.713723119179263e+18,-0.11563942948555023,-0.0423029063276922,-0.002729874444399751,-3.989022837689343,-2.1263929518853937,8.605020745918608
1.713723119189263e+18,-0.06857234825288944,-0.10418051537944806,0.037324573022731414,-3.1475893707090203,-3.1667503464210975,8.827047770088686
1.713723119198263e+18,-0.008922570602730573,-0.09686133095788145,0.014831532502406571,1.2998364556117536,-0.4021571805332292,10.12739360680952
1.7137231192082632e+18,-0.03893689951991456,-0.015824775082273108,0.02077631585499995,3.59574935186399,1.4120227835043768,11.599813236048739
1.713723119218263e+18,-0.05493671368577148,0.05445994310828634,-0.0013846149919467168,3.3189821973231823,0.4609490429337469,12.084810871557412
1.713723119227263e+18,0.015599122449433202,0.043513508696244665,0.0015981845387634183,-1.0086539983250842,-4.059683692180691,10.981207114895012
1.713723119242012e+18,0.14942217609928507,-0.04020644735804015,0.031613442384574884,-4.449614156582119,-6.242651699670139,9.358453565646462
1.713723119252012e+18,0.2451464310992511,-0.05641442600157832,0.02004256568726871,-1.0310819270756792,-1.7538955602865216,8.937367901953206
1.713723119261012e+18,0.2116247412243828,-0.013246408651355405,-0.0048470954876956365,2.1960709819718462,2.4803714537414416,8.325687192425772
1.713723119271012e+18,0.0935535411477918,0.02932101762273645,-0.0033979775255860542,1.8930064792439518,4.588609361460642,8.958558609168545
1.713723119280012e+18,-0.045562843163153344,0.037541249615621844,-0.0043478481828958075,0.5781177850440864,5.776911780496736,9.553808469100025
1.713723119290012e+18,-0.19363628914712822,0.026613152521315624,0.022921377600491868,-0.4784825116645411,5.083599220158163,9.667150104678253
1.713723119299012e+18,-0.25031802235430944,0.007598133883776259,0.01113552413044163,-0.5387644363390981,2.943714017317872,9.75995400441862
1.713723119309012e+18,-0.17215637919412888,-0.04751281385311288,0.009330181041003447,-0.8057950618927189,-1.2387184222678802,8.933134883160497
1.713723119318012e+18,-0.10110786347808845,-0.08244645594895951,0.029002908228521754,-2.7099782303943285,-4.906811879164709,8.95683297273439
1.713723119328012e+18,0.014419298212479992,-0.06290927615930611,0.027745013947728506,-0.8731285329458661,-3.8262171063660984,10.271530299718782
1.713723119337012e+18,0.020069994056233543,0.014543181611739047,0.018901234280930608,3.2328454128048967,-0.38997700725074197,11.37799876735436
1.713723119346012e+18,-0.011905171711060323,0.08319933134914899,0.002646299063328258,3.709547107415054,1.0645830931698161,12.348398688421721
1.713723119356012e+18,0.03333579259237174,0.06920595228968113,-0.013057191528557456,1.3762967210411878,-0.7307444412340744,11.425093167946244
1.713723119365012e+18,0.0748902807330175,-0.005323305261047363,0.007857608325140842,-3.613767600792055,-4.5458087043120745,9.489586543868223
1.713723119375012e+18,0.1695494276715484,-0.08386854202781431,0.019053267570843104,-4.679030050699382,-4.505307146001453,8.529199914105972
1.713723119385012e+18,0.18874578951964305,-0.08011808355363076,0.013135559407826238,-0.488345010663547,-0.07722381972212809,8.77713025047601
1.713723119394012e+18,0.15138149004371612,-0.037566560269731826,-0.014585918891373464,2.1944852558828067,3.231342534029189,8.69520486472671
1.713723119404012e+18,0.03217280690830182,0.014828486268514329,0.0003611937466394717,2.0597308330042927,4.420485704878213,8.687153488919645
1.713723119413012e+18,-0.08093608023641327,0.030795002375864397,0.0014108946145985181,0.938811066886005,4.938047631260013,9.382707298232448
1.713723119422012e+18,-0.1741182356778555,0.0420902766651598,0.009947921729733331,0.48539311616335196,4.35359035689632,9.398377444359062
1.713723119432012e+18,-0.22240774513073513,0.038996004521278924,0.014663952284591941,0.2997864121947667,2.384894909230396,9.604297342300567
1.713723119442012e+18,-0.16064756598842808,-0.0035162162234866796,0.002234244048760636,-0.33492336983851373,-0.6056822598005837,9.638808047528578
1.713723119451012e+18,-0.1075520759458639,-0.05486581375658394,0.03070701787452778,-2.7126037231989097,-3.9311431301265984,10.084889413178864
1.713723119460012e+18,-0.04828815033069737,-0.06738627087392335,0.0338926400751072,-2.281570197804706,-4.143035741031955,11.39387748539875
1.713723119470012e+18,-0.00019555423938094575,-0.021442709577856146,0.022368995378255534,1.7174342534912064,-1.83262942053201,12.173539600103602
1.713723119479012e+18,0.0578701496121328,0.015791671651943413,-0.003963681087441828,2.6752650068523556,-2.0753763839769777,11.439767771714763
1.713723119489012e+18,0.12694657184661845,0.029948181698001588,0.005392317572349722,0.24825421867082925,-4.054899691980117,9.750146315317421
1.713723119498012e+18,0.20377683664366475,0.024384331030578656,0.005034570827613723,-0.6795351972781828,-3.114353805391305,8.313925895797118
1.713723119508012e+18,0.22056262082618908,0.030066778436954336,-0.0020123985573652445,0.5015486250021292,0.3847838764134578,7.783149718384032
1.713723119517012e+18,0.14823432481622312,0.03989230970931368,0.0030860256277856013,0.5866195052887936,3.3972671717519454,8.466860781652018
1.713723119527012e+18,0.01919613920927195,0.03910430068321569,0.0018841572979503974,0.08466897828144636,5.55333863278988,9.043652213684808
1.713723119536012e+18,-0.13007793197790976,0.02883016489852076,0.016386349276323795,-0.40240908374776185,6.143418528015585,9.235236336067773
1.713723119545012e+18,-0.23975590538133856,0.007223914942254533,0.009548991192522432,-0.7478823103108245,4.902174917741684,9.49830890228765
1.713723119555012e+18,-0.24873039787280676,-0.03960674190146381,0.017437251244200643,-1.061600303623126,1.5549521980034968,9.280847785092742
1.713723119564012e+18,-0.19637126561436097,-0.08714758304895746,0.019551701750272633,-2.048164063773777,-2.3893644857305936,9.481491518540164
1.713723119574012e+18,-0.11394402586753984,-0.09003953456201653,0.03739405610238886,-1.9664936919781522,-4.695740226462511,10.655347731553292
1.713723119583012e+18,-0.043246856007244976,-0.028821346068058543,0.030623212812825044,1.7488603567096797,-3.040709742710506,12.282746345469882
1.713723119593012e+18,0.03861771875530994,0.043167523242547,-0.00034280199962935607,4.33691201029562,-2.1755258605079026,12.73656669590522
1.713723119602012e+18,0.11392507908857427,0.059694551414263046,0.0010340021504056229,1.2947948279674926,-4.686939471493744,11.197758257776972
1.713723119613012e+18,0.2150392412605557,0.03050525451853425,0.016378288172276375,-2.220466629901319,-5.554182925784835,8.967289576988623
1.713723119621012e+18,0.2630504212383135,0.013935898595484986,0.016512444471155407,-1.112536237278062,-1.996527377641557,8.172377283586957
1.713723119631012e+18,0.23704058690069127,0.019257810819077938,0.0027304335146735087,0.6297820593670259,2.585850575297986,7.787002637192235
1.713723119640012e+18,0.13207567504000012,0.02764171270852913,0.007814860219630274,0.3200611798910345,5.107537973307402,7.775789140571419
1.713723119650012e+18,-0.05553066823197302,0.0227622500368246,0.009479851067195531,-0.18415689800639212,6.985385273566486,8.75176983267655
1.713723119659012e+18,-0.21964267361529685,0.014017571387375513,0.015566338158195196,-0.3769042221754457,7.049809874489599,9.663105107452067
1.713723119669012e+18,-0.31731852849241016,-0.0033932363331633988,0.017383202151562045,-0.4084953088652852,4.371696193340988,10.106376483486505
1.713723119678012e+18,-0.2761527384777875,-0.05365245541281562,0.015419126153236472,-0.652778026702868,0.0037144380596586344,10.24018971474878
1.713723119687012e+18,-0.13830630805798308,-0.11197290249513804,0.030562678909840133,-3.47602917012442,-6.367396225009357,9.943767660410042
1.713723119698012e+18,0.0008993669675913165,-0.07805035627527619,0.048549380925258165,-1.484964671622495,-7.682726297809459,10.950006856630312
1.713723119707012e+18,0.08033869403828961,0.013528528510387355,0.013750784458776127,4.420224657693621,-3.1990586690804768,11.880618767242042
1.713723119716012e+18,0.07219354888454335,0.12765774230207855,0.002105437821838126,5.500636961724153,-0.04480316819786212,11.622223421942312
1.713723119725012e+18,0.07569023787544568,0.16141703118947298,-0.014925647588980248,2.9448281620693804,-0.08341828281157758,10.67508402273577
1.713723119735012e+18,0.11998892193938329,0.0926146001487321,0.006383352770425326,-2.3504942660981496,-2.32278558458888,8.64326370541412
1.713723119744012e+18,0.14620664964175817,0.009429628020418367,0.02894216974179267,-4.699421285847606,-2.2719583052064025,7.982433984465435
1.713723119754012e+18,0.15765743919710443,-0.04338784704803031,0.028186710713472236,-2.2910549796047097,1.3567729941016784,8.316759997246852
1.713723119763012e+18,0.07111555968771259,-0.04537812487137896,0.024586754820577067,-0.3901363926544791,3.9284418847990974,8.60910906232736
1.713723119773012e+18,-0.06767659003201645,-0.01831140704053932,0.02308250859089696,0.6956835879423866,5.123019355395157,9.65466173651479
1.713723119782012e+18,-0.1829650631266123,0.014011735082619181,0.021916662985010632,1.2892967436191705,4.832634438868842,10.080623855988387
1.713723119792012e+18,-0.22943756918528418,0.02857842668400339,0.01593871866664267,1.1222135050334103,2.3394932801451267,10.295613997080455
1.713723119801012e+18,-0.14023471159760245,-0.014574927222889932,0.009365087714707836,-0.5957691682158833,-2.131579217265378,9.636325048587882
1.713723119811012e+18,-0.05101493422603831,-0.059840574831396105,0.039666054332213076,-3.360276879442195,-5.9915638629291115,9.261831599765989
1.713723119821012e+18,0.05219686653394499,-0.054585483503588064,0.046079157617248914,-1.1814010671335005,-3.8845889008670706,10.353144322873572
1.713723119830012e+18,0.04649045646329765,0.016778995237481584,0.03226358741374256,3.2170572553109777,0.4789217324281123,11.357600242645034
1.713723119839012e+18,-0.0037919053475429856,0.09829533402704238,0.019740871132505035,3.828478017519053,1.7717540619682368,11.666530168347895
1.713723119849012e+18,0.01959534319186223,0.10002894261374376,0.008452776893882262,2.016953880818696,-0.09162428840925256,10.558260401661622
1.713723119858012e+18,0.06299798848373626,0.031373660987852464,0.021692065616579496,-3.006825291732381,-3.6719925549765513,8.968334511132424
1.713723119868012e+18,0.1347640047907271,-0.03965819394241421,0.04372257390061941,-4.366768260375694,-3.428751943801451,8.483969218065878
1.713723119877012e+18,0.1612578227070126,-0.05088855987318809,0.03155570033957803,-0.6149294241053306,0.4562485509895107,8.81702238695127
1.713723119887012e+18,0.09700070733835303,-0.008246944153675257,0.0193998147706307,1.6829745068324382,3.215492478797973,8.855010896606089
1.713723119896012e+18,-0.014946891070470831,0.03660819514841935,0.017585619175398394,1.9261389634171577,4.302527874599108,9.344523084027376
1.713723119906012e+18,-0.13176484278838022,0.06868400181340713,0.022529457088876843,1.1617301727648957,4.288499758384918,9.632920442546645
1.713723119915012e+18,-0.20164578800020297,0.0776190369430967,0.02746435846530486,0.5803789897677554,3.0096911524138803,9.639525318716334
1.713723119924012e+18,-0.1640950292501153,0.030192914914197535,0.009648995212607866,-0.5661348385084298,0.1588667796480028,9.352533580722252
1.713723119934012e+18,-0.10423328249270042,-0.04744039880319184,0.03799305566177201,-3.496841302724797,-3.616401391302882,9.465835757812691
1.713723119943012e+18,-0.04707982830622421,-0.07761714129709203,0.051860221701797965,-3.0563381222318453,-3.5866764753451266,10.853836811762081
1.713723119953012e+18,-0.029229665327992874,-0.02112288748774445,0.0424768833396086,1.7246933201895134,-0.44522122211035886,12.275801023061408
1.713723119963012e+18,0.005377909032050374,0.037573049518884294,0.012742661134415412,3.6259311049662086,-0.6497553304759357,12.07318813377822
1.713723119972012e+18,0.0812767129066567,0.03522016147782625,0.010258009572271626,0.7962871092000726,-4.312580298079664,10.365256049913476
1.713723119981012e+18,0.1650828744269296,0.00823581449324385,0.03879228129559457,-2.635085980570647,-6.071695737815597,9.011130024042272
1.713723119991012e+18,0.2605887712634919,-0.0014060503411179657,0.023995935402552116,-0.798352102774333,-2.1143852742484692,8.426610143406979
1.713723120000012e+18,0.23083383957158973,0.0359003014836186,0.011735436941075497,2.026498506702377,2.3358440521378783,8.037733241657861
1.713723120010012e+18,0.09641023742791954,0.06987733903270293,0.008881238646141326,1.474212784306634,5.031878113889965,8.88701042799747
1.713723120020012e+18,-0.08408925665613769,0.0684800161994166,0.01372539041266542,0.11244164582386142,6.616800578502864,9.751032576050564
1.713723120028012e+18,-0.22235669613655445,0.04765738248394744,0.02873632412451028,-0.9464430514072351,5.922557064520637,9.924208193064644
1.713723120038012e+18,-0.26563469269448625,-0.003119738364179217,0.020040525769700893,-1.4009788135471137,2.6091178394281607,9.706452122444613
1.713723120048012e+18,-0.18039356237997722,-0.07527995211659,0.03353519578553672,-2.374524983315616,-2.3619291325812255,8.912426283254161
1.713723120057012e+18,-0.09360674542772396,-0.0944552122754532,0.050254230284287285,-2.828635387255203,-5.367598598859457,9.293975594616485
1.713723120066012e+18,-0.00869100963290426,-0.04044978323500214,0.04590532095143515,1.2735175020492142,-3.1587698736939984,10.937043353300156
1.713723120077012e+18,-0.007012579165947228,0.07954018461634829,0.017598794790371092,4.798298651710884,-0.24328998248583422,12.350812829427383
1.713723120086012e+18,0.04460206318321923,0.10337168435889811,0.0020624836606848588,3.29477610501855,-1.604870415471786,12.02884480433167
1.713723120095012e+18,0.11381161140582022,0.05078358404884627,0.013958701304976416,-2.1484867705326964,-5.226017543077538,9.95446098321451
1.713723120105012e+18,0.21230187923848787,-0.019740067172678996,0.03717110272056579,-4.633400981510277,-5.592366767582725,8.466015876133435
1.713723120114012e+18,0.2626480876349364,-0.03961529779370625,0.023091366913166336,-1.059825181936054,-0.46072600332051816,8.44267411273421
1.713723120124012e+18,0.20300862517595977,-0.004504795708260907,0.0021210335377635733,1.4933610961664678,3.9972247391024447,8.472600802653808
1.713723120133012e+18,0.05713643872707866,0.026949427530756187,0.014414590820734435,1.3057589606046263,5.788820647898877,9.215821460026726
1.713723120142012e+18,-0.10502944192962395,0.03242829908727602,0.011785792992628842,0.31506300318519487,6.646634640736791,9.910973654666833
1.713723120152012e+18,-0.248539628877671,0.03567347171457316,0.030072552494638808,-0.04123626813402761,5.183298749704976,9.607140672298097
1.713723120161012e+18,-0.26943164795336677,0.021731566470335105,0.016632260172266208,-0.05214702409255531,1.8012366396457486,9.506280614229059
1.713723120171012e+18,-0.16045566872076553,-0.03199796203210506,0.01671789835497929,-1.1326670149399898,-2.7029179046272365,9.051027718520746
1.713723120180012e+18,-0.07469114376607906,-0.06609110977492941,0.03401564254112691,-3.2333228749671257,-6.079710213688043,9.479737774120862
1.713723120190012e+18,0.026713834163052806,-0.043720715536962135,0.0391513610656663,-0.5663156601722853,-3.8519657936248333,11.082210243453243
1.713723120199012e+18,0.03030165875909858,0.031225243823499598,0.017016546927198537,3.505073420220567,-0.09217831017265726,11.479593262006032
1.713723120208012e+18,0.009479287898094225,0.09122406624808817,0.005698617785453164,3.2864344906506795,0.1609255550744236,11.614659793837419
1.713723120218012e+18,0.05460941578323395,0.0713555700267853,-0.0035105629734550827,0.38220993369748485,-1.6737371005751718,10.555277469396785
1.713723120228012e+18,0.11205096155011306,0.0025137565189018553,0.021011075273214726,-3.48866782185058,-3.811636238394858,8.538562008821728
1.713723120237012e+18,0.17215066416694852,-0.04206739778776426,0.025921949354179522,-2.7683025809594723,-1.865877724820414,8.111239324636589
1.713723120247012e+18,0.15045304113608127,-0.030841507346437154,0.012298533274757932,0.4198041427946336,2.061167895000238,8.505414063135435
1.713723120257012e+18,0.025585076120727402,0.006465045299431649,0.012156918688772118,1.2820345224347292,4.300750999810226,9.735762224155696
1.713723120266012e+18,-0.09966168184939436,0.03348710343251957,0.0032572122609832305,1.3543336940941557,5.140720242652405,10.290786004611329
1.713723120275012e+18,-0.19573627336785265,0.046387035131021874,0.01659093336877037,0.7423728174142181,3.782386501345108,10.15816293448628
1.713723120285012e+18,-0.16765547536840888,0.016247701953679927,0.0033619746100367995,0.08181868149213976,0.4967756326934701,9.312719846119734
1.713723120294012e+18,-0.09820745057421731,-0.026257974523773542,0.025604117888616038,-2.2022926135293655,-3.66005245763087,8.66316290542282
1.713723120303012e+18,-0.0068913164978728885,-0.04585236570059606,0.03841361129310355,-2.737004258233575,-4.817142877913529,9.046907248826182
1.713723120313012e+18,0.039455742623860104,-0.0021419813482739425,0.03467138871301363,0.9822491783774954,-1.2937929092631744,10.369499087701763
1.713723120322012e+18,-0.0007258138252839025,0.06432905780950876,0.021257916163966276,3.04036687446593,1.6143123580815097,11.60219672333265
1.713723120332012e+18,-0.024534198455677905,0.08392554352609974,0.006307368917132027,2.001216708950534,1.336769180411462,11.669738457237422
1.713723120342012e+18,-0.00624176901290102,0.022108183926910264,0.017130082762328542,-1.153890496737648,-1.4538315177517944,10.60015460090841
1.713723120351012e+18,0.06294434566923968,-0.05646061779835728,0.025219760020290166,-4.935259436538277,-5.0419913706347925,9.173014228077525
1.713723120360012e+18,0.13877843132256967,-0.0804889263537664,0.04940068480041153,-2.80901830483363,-3.676083575285479,8.626289714745319
1.713723120370012e+18,0.18334110690997152,-0.027843638836722535,0.007254027586283566,2.388248498798771,0.7781261355708292,8.574789249949148
1.713723120379012e+18,0.10790160712444248,0.047450016692737705,0.014819139405216664,3.2308087165775294,2.9433860213328265,9.04085532326168
1.713723120389012e+18,-0.017664821183569303,0.08893704654356567,0.004159223931026442,1.8780128544622212,4.5387578153315715,10.25256709610887
1.713723120398012e+18,-0.13148365639291745,0.09017237236156782,0.017679728002967646,0.25191044444396504,4.5599828962406095,10.297908103184778
1.713723120407012e+18,-0.1863959751002101,0.04525533741853655,0.01077087207236346,-1.0524299696503019,2.5331371957896764,9.694287201394882
1.713723120417012e+18,-0.13806290967253176,-0.04953687989311617,0.01537609676147339,-3.315302648326645,-1.7532400241779431,8.890954518893999
1.713723120427012e+18,-0.054062600582842756,-0.10231741230109322,0.04003881694952952,-4.256911381146675,-4.629195115421094,8.853202782443326
1.713723120437012e+18,0.01874231740684669,-0.06479622093858713,0.043520770341502917,-0.04560325408274919,-2.357548345914706,9.890841332024452
1.713723120446012e+18,0.014638685581013078,0.024830325085666988,0.022388515999580354,3.859555304959266,0.8783009247040904,11.105615734743411
1.713723120455012e+18,-0.022685464868798196,0.09403769537425563,0.013604514527887758,3.5811340612611575,1.4519992180592818,11.896719616489873
1.713723120465012e+18,-0.009179769455351828,0.07023300983057565,0.010220322320676063,1.2158318813345008,-0.25142476429833993,11.50454058239327
1.713723120474012e+18,0.052208107309229534,-0.011559466638014876,0.021442996603231436,-3.880099233071201,-4.6907632875153995,9.76915166185714
1.713723120483012e+18,0.13201055265951597,-0.06147872422594608,0.06138111536783439,-4.292737262419687,-5.152818165838325,8.739706042643025
1.713723120493012e+18,0.21253959115112706,-0.03673478184155811,0.027283252407346085,0.765340817000823,-0.7225566045893977,8.503595247756289
1.713723120502012e+18,0.16338652568120673,0.032748630167970236,0.023780186689971804,2.960537044015469,2.378424142541801,8.428352866109027
1.713723120512012e+18,0.042875276919696635,0.07816195986051212,0.00751917267769674,1.9975100982830312,4.4251355878648315,9.436197550735974
1.713723120521012e+18,-0.09198331196839282,0.07842301486648573,0.024325209513449547,0.0347739061664802,5.280227097810322,9.866813897068273
1.713723120531012e+18,-0.20393524453249298,0.03828195003168447,0.0202818251648748,-1.296906930287732,4.072399716841061,9.91898528792022
1.713723120540012e+18,-0.19576956749681879,-0.03263753401967228,0.028572555115889728,-1.9728570503683198,0.9460178814981697,9.518008963503645
1.713723120550012e+18,-0.11505185026011201,-0.09540391315969154,0.04558982823013847,-3.5137504102014914,-3.782257308294719,8.885429267997976
1.713723120559012e+18,-0.01749034025147362,-0.08252307462441931,0.06608471908597935,-1.72147995673993,-4.704368001482715,9.551024405937271
1.713723120568012e+18,0.047564941404226235,-0.004056572611536871,0.04228799899447548,3.0536301895576616,-1.3709516673575375,10.925575069897702
1.713723120579012e+18,0.01740971902779903,0.08813528727148079,0.02495034372353268,3.9966020707434007,0.635660353408515,11.95335077000744
1.713723120587012e+18,0.010628609555579913,0.08727080246949206,0.007641814149484314,1.9810930027297085,0.1990635470511628,11.90645132545016
1.713723120597012e+18,0.04661671555006094,0.002368495998544867,0.02036816650670788,-2.7400965289196084,-3.372969822464115,10.313238930845909
1.713723120607012e+18,0.11518889415378725,-0.0480277915676774,0.04801837899518918,-3.9753991899269066,-4.647384263464843,9.209827427366063
1.713723120616012e+18,0.19425120826855757,-0.02370266469043106,0.027662452387785533,0.559032814765686,-1.574354574296574,8.633913599324442
1.713723120625012e+18,0.18829868109003678,0.05223693005154695,0.01639185495153236,3.101847693940553,1.157626626018432,8.019687745552487
1.713723120636012e+18,0.09685847492879204,0.1033426247564308,0.010515313371535905,2.112775753657135,3.326379417406435,8.610376249938728
1.713723120644012e+18,-0.009549736266608079,0.09946933004542545,0.009467445589328872,0.03493289844094907,5.111572572035159,9.436598225265886
1.713723120654012e+18,-0.14153956785638688,0.04447625272277103,0.016905241155136592,-2.00375910159497,5.085435812958409,9.891031296912477
1.713723120664012e+18,-0.1964551030714768,-0.04214771947995166,0.029567991109341864,-3.085366871319816,2.8213344336439556,9.821346393942315
1.713723120673012e+18,-0.16404585405495556,-0.11601269909608665,0.043138499856970436,-3.414353432138755,-1.0639854016963837,9.365019641818437
1.713723120682012e+18,-0.10270145514990182,-0.12848658085274078,0.06162508435983011,-2.61428266726062,-4.006631937227708,9.617376864257391
1.713723120692012e+18,-0.02100077068088998,-0.059513314190473766,0.043867937930815094,1.483518513232176,-2.7943596005115117,10.795756559722367
1.713723120701012e+18,0.0088929994271278,0.03094985469548171,0.023240838436930276,4.4846669504601415,-1.0200606184503154,11.887736854134893
1.713723120711012e+18,0.06484750572431769,0.060752069776966004,0.0015495550538446156,2.825223247317857,-2.2857074834749507,11.82640419919867
1.713723120720012e+18,0.11563921370778829,0.03894649981519918,0.023683340935431577,-1.007510576920493,-4.675129219722621,10.372402756062229
1.713723120730012e+18,0.19345131956936837,0.014933856607209825,0.03848382345300787,-1.9636045220831608,-3.8936184616092935,9.003892188430978
1.713723120739012e+18,0.2297485664363833,0.03248789080038647,0.023201538899447646,0.4914760262337383,-0.05183473040223954,8.309452793262654
1.713723120749012e+18,0.18265677087294013,0.057068905577512236,0.017105369704007563,1.020323305325964,2.8476725412767276,8.083679517623654
1.713723120758012e+18,0.0801047516724538,0.04940084202704765,0.018575775038635514,-0.22702220121005198,4.675337829607128,8.452327992521306
1.713723120768012e+18,-0.07409681764602957,0.012764105807218498,0.018225514782780183,-1.3972913016417885,5.770955495287246,9.356392070805668
1.713723120777012e+18,-0.19722598111526987,-0.026037985951075957,0.022640037365955344,-1.816293137956161,5.305961725323179,9.886362350037867
1.713723120786012e+18,-0.2452563376194338,-0.061710374092550625,0.03027289776390238,-1.4732373272006656,2.7038166426355463,9.917599753198218
1.713723120796012e+18,-0.17893157012631372,-0.09484901951031896,0.033981547348261316,-1.2174275773119798,-1.6460736852741855,9.619532649325299
1.713723120805012e+18,-0.0966014679954253,-0.0907603467458336,0.04973729265593534,-1.3725576655317702,-5.124544057821861,10.019544271173059
1.713723120815012e+18,-0.005556403954423401,-0.03716819089884465,0.045719805720127675,0.7228495164369413,-4.303348122508061,11.598811349716803
1.713723120824012e+18,0.049006012046249124,0.022896322224229347,0.02005398052916613,3.3358621634851113,-1.9381722939647856,12.287596375064023
1.713723120834012e+18,0.09998584737558634,0.04830956909705568,0.011412079698148864,2.1305115698397006,-2.6465805497933594,11.11932633098325
1.713723120843012e+18,0.14582846126628274,0.04779777818908015,0.028005782124753083,-0.684630170636051,-3.8868438483569054,9.548840133312481
1.713723120853012e+18,0.21832896642005445,0.04072926076435837,0.026595762403821898,-0.6404500875213108,-1.812011140533587,8.22232689660521
1.713723120862012e+18,0.21032271920887857,0.048838720194120715,0.01640268353741628,0.39844310828724216,1.373075622007927,7.820155988805614
1.713723120872012e+18,0.11833672312334076,0.03617033870146521,0.023773872833356448,-0.6001398302025277,3.888504837785088,8.59848231881332
1.713723120881012e+18,-0.02160183300476909,-0.0032830625467241996,0.028246250794425824,-1.678970121676861,5.722535528554028,9.570103793091302
1.713723120891012e+18,-0.1705962581864909,-0.04525304281708761,0.04091376267993794,-1.8518263606338659,5.483959407825891,9.946844597769813
1.713723120900012e+18,-0.2504511898202411,-0.06324887139179845,0.041859227994238975,-1.0044161069521604,3.1407612997207406,10.071984996725801
1.713723120910012e+18,-0.17777417931813602,-0.07766115950113132,0.03847785329454126,0.020878597989281995,-1.0468332544190229,9.537170774785213
1.713723120919012e+18,-0.08168114840951417,-0.06628766059587048,0.04796045381724474,-0.7155158628859254,-5.195455283218305,9.216581142005444
1.713723120929012e+18,0.02839581482845672,-0.023042710632966985,0.046324985740856875,-0.05029361317207563,-5.123727286529291,10.597775498272544
1.713723120938012e+18,0.0570971353145671,0.03793645530106155,0.03356752662427535,2.4887917248598397,-1.356257092651264,11.969747069562768
1.713723120947012e+18,0.06122197801773561,0.05907737490062819,0.012558120925812107,2.4163802173020956,0.1754957609583367,11.859119853898031
1.713723120958012e+18,0.08146222539080211,0.01774872060445726,0.02743108780221636,-0.763415415450373,-1.8920054317848112,9.8836775800189
1.713723120966012e+18,0.12593366557326502,-0.02435844567059593,0.040663864218793186,-3.0679278163300694,-3.3476400101555885,8.511597973750343
1.713723120976012e+18,0.1777756315130497,-0.03421506491220137,0.044153144088248865,-1.0455308418335618,-0.8833872870120701,8.211754440304372
1.713723120985012e+18,0.15980993076109934,-0.004285319583371137,0.03349951287639889,1.3305729899589531,2.371935613002124,8.460240832898197
1.713723120995012e+18,0.047612739186242495,0.036593131112083774,0.03688230073596155,1.42204097811137,4.252435959933678,9.25368839901835
1.713723121004012e+18,-0.08758803073994308,0.050916079873673616,0.036073194518381854,0.7244386213136921,5.320181554991836,10.185572407090142
1.713723121015012e+18,-0.1978723616151951,0.028327070497081993,0.037941272630636756,-0.40620846506978503,3.933525147949319,10.420749863664938
1.713723121023012e+18,-0.17199063603565096,-0.0304408275919171,0.04133091458855634,-1.5535874526118305,0.6167387360871645,9.489671607497753
1.713723121033012e+18,-0.09849227111516909,-0.09544426578325463,0.05529947764279226,-3.674429655006035,-4.0955379242405945,8.68303484539738
1.713723121042012e+18,-0.009385338032043024,-0.09532741059797346,0.06645884808761658,-2.051511532003919,-4.524316180995003,9.507426193502626
1.713723121052012e+18,0.025185822296088275,-0.02105920160336812,0.0398593330099379,2.6026805206404893,-0.9932599057419522,11.244613440654618
1.713723121061012e+18,-0.006706091272964238,0.05107799579467321,0.029552040084486687,3.7938031986712666,0.8457813356368804,12.779720565493003
1.713723121071012e+18,0.029732633023575688,0.04881194976119004,0.009996333402570268,2.1428579212701138,-0.6360377736044976,11.813537512232646
1.713723121080012e+18,0.08872255559481877,0.0019519817975548197,0.03646180481681911,-2.6682232400798345,-4.983724198034331,9.364126923025413
1.713723121090012e+18,0.2050608239188938,-0.03025318318520551,0.05008952476110161,-3.0437654777343814,-5.284182743492064,7.78610208635686
1.713723121099012e+18,0.26428774878591615,-0.0040668120058908,0.038398180108120655,1.1713061970067766,-0.7610785687629454,7.71420850327081
1.713723121109012e+18,0.18524972654279526,0.048369963262817145,0.02691735320519891,2.0866601719665585,3.663577739575447,8.923417159161943
1.713723121118012e+18,0.03967741246313879,0.06510870672315923,0.0235986519089106,0.8889150662007418,6.347411293316244,9.857977521941036
1.713723121128012e+18,-0.15991692583632028,0.03962586705395844,0.03712423017593081,-0.8171950386043783,6.980723556205364,10.236285993469332
1.713723121137012e+18,-0.2596107825723378,-0.007571459566487069,0.030432084788551833,-1.5964247345755924,4.723262964345677,9.920754977371065
1.713723121147012e+18,-0.22330680582960225,-0.07582405663183242,0.04471675310213094,-1.7989003239435133,-0.15305537630680993,8.952513517733259
1.713723121156012e+18,-0.10650385767571184,-0.11356457072158414,0.042719198837069164,-2.881786798775342,-5.288625350848793,8.592525730164263
1.713723121166012e+18,0.00916431079266415,-0.06697266511385445,0.06073352945433467,-0.257798572101724,-5.096966085335497,9.927871437131643
1.713723121175012e+18,0.05656486865515298,0.027481909933212718,0.020922995078660366,4.301673345493763,-1.0098584260427115,11.600460645936277
1.713723121185012e+18,0.022692465729103644,0.10480076121260436,0.015259940653928956,4.276537506599556,0.6009433982099115,12.679769228423767
1.713723121194012e+18,0.042091197616608275,0.08600320365472253,-0.00018267340490974848,1.305388089926987,-0.7281537545735741,11.876661943506253
1.713723121204012e+18,0.11516892115741467,0.006983962999131468,0.02721459128400768,-3.7352747399568567,-4.808418864784609,8.960517273325195
1.713723121213012e+18,0.20292576007288765,-0.04266868272081714,0.044077979264468145,-4.091613968580534,-4.458472026068097,7.717677092203679
1.713723121223012e+18,0.25825193402043467,-0.03871827472792226,0.015198692592349586,0.11436859709584163,0.3496368909141595,7.8235449327036655
1.713723121232012e+18,0.16671639020777315,-0.005625342783915762,0.009696355851518838,1.6166489858062711,3.983975449911974,8.700492639198268
1.713723121241012e+18,0.017241658338546073,0.009645508416092683,-0.0031926231599053202,0.7917732356100337,6.26257432977703,10.10929112248269
1.713723121251012e+18,-0.17037111557016407,0.006896327911178722,0.02152247375573864,-0.22119647923421454,6.3392524356068645,10.271059572990179
1.713723121260012e+18,-0.2705795084348414,0.0027485179133034175,0.01182830018987158,-0.06865407385634717,3.9282882684350016,9.745904216042515
1.713723121270012e+18,-0.21449052226841148,-0.016057933243276708,0.018785457272205673,0.45658900726894325,-0.31797602246004286,8.772068669793956
1.713723121279012e+18,-0.08920168432025377,-0.0452894628332351,0.00922904873837341,-1.6656991106462997,-5.359781991066004,8.511312638652951
1.713723121289012e+18,0.023182468460311648,-0.0360627081572936,0.03623944158231996,-1.7196924438956067,-5.505884614908138,10.385519235868646
1.713723121298012e+18,0.0662694495650768,0.009144944900429441,0.00744681020188037,1.924747814129882,-0.9202127385516089,12.341316213186808
1.713723121308012e+18,0.016892112900748945,0.05141766143045486,-0.002615112805176006,2.812457221123879,1.056019209875702,12.85724895816332
1.713723121317012e+18,0.049591605538279585,0.01977318582462738,-0.01599811800993469,0.3196066049235191,-1.4010043043279001,11.069011959526877
1.713723121327012e+18,0.12037250705192028,-0.03358709091848783,0.013821740699971235,-3.4902901528837935,-5.673710835498983,8.537979265884767
1.713723121336012e+18,0.24410092598768246,-0.05918282126750086,0.02569755311175584,-2.7631353437651622,-4.484077732321015,7.652031584982873
1.713723121345012e+18,0.29115373233795433,-0.03614440008633341,-0.00041999567740819794,1.1408463364000612,0.9277029461428172,8.004751308767487
1.713723121355012e+18,0.18266412621911954,0.011102596094644542,0.004331887357085871,1.8475518434851292,4.863318416906088,9.248350307930687
1.713723121365012e+18,-0.012142456860619098,0.027937888531736683,0.007165266334048218,0.822092106989206,7.045400498439614,10.47741732469687
1.713723121374012e+18,-0.18797330205510376,0.023241526215449237,0.013769016825437826,-0.0677724581520765,6.891692214607549,10.205491207837476
1.713723121383012e+18,-0.28682419481805943,0.01496242402221435,0.02016196319437787,-0.1597134016921905,3.8381555684991167,9.056307219280917
1.713723121393012e+18,-0.21082462304965544,-0.02546384968734698,0.002205242610369018,-0.2439928168026635,-1.069027355608189,8.158036829481983
1.713723121402012e+18,-0.10449441275053578,-0.06317742888141174,0.01439403813586934,-2.4373948647510733,-5.524096803941976,8.495632996415686
1.713723121412012e+18,0.004097461556055817,-0.05824300424109146,0.021101763841544448,-1.6663821296670145,-4.6044357557162074,10.877997619073668
1.713723121421012e+18,0.02154732830341589,-0.004859576977093742,0.0018358291761822305,2.366766990996218,-0.30115133061724925,12.830990393278839
1.713723121431012e+18,0.00413620116349442,0.03987176135914562,-0.01100475474653946,3.104181715010533,0.5777858636101502,13.216668250234493
1.713723121440012e+18,0.06518832832522886,0.02002741332599758,-0.017415451145566353,0.46511512889494044,-3.0733635661816057,11.025232776908062
1.713723121450012e+18,0.1581265417227616,-0.01580008596232389,0.02023600437635954,-3.118848879343918,-6.680584736634893,8.243796558479403
1.713723121459012e+18,0.2785211066568956,-0.03272048724554286,0.01510629179784347,-1.8740429160586618,-4.132055604765358,7.436383043905309
1.713723121469012e+18,0.2789259663815436,-0.0027275842416185237,-0.0023794537778414203,1.3917842141819188,1.8723506389390419,8.039764384743439
1.713723121478012e+18,0.15085941644628983,0.023534319466027253,-0.008124214339273982,1.179563762521231,5.813797664758201,9.503387496120755
1.713723121487012e+18,-0.0363448553671671,0.022900883137592858,-0.0006747609804271576,0.08567544750465136,7.756900583811899,10.259652899764568
1.713723121497012e+18,-0.22213213217686734,0.0012821696612216541,0.010335878833261865,-0.7829435770751323,6.701120709628567,9.61283095694113
1.713723121506012e+18,-0.2916387109415204,-0.010399294750810851,0.01543154658302974,-0.433869817637748,3.3782930423889477,8.814105017224312
1.713723121517012e+18,-0.19413698708864807,-0.03980621437625719,0.004861034155989846,-0.1591827168030324,-1.6981259550989318,8.317876017114221
1.713723121525012e+18,-0.10111132694203633,-0.056400844279761816,0.01735846982630085,-1.7649942816430995,-5.226814667540672,8.83167078106323
1.713723121535012e+18,-0.01516020323304565,-0.04226781596901504,0.022534020649884346,-0.803125176345094,-3.9007542161099784,11.377959909078449
1.713723121544012e+18,0.0038136846506334754,0.0051881567162182386,0.006460429711981503,2.269755576811852,-0.3779275934947727,13.540029833078071
1.713723121554012e+18,0.027271850447379474,0.010758615918549081,-0.006628538657237436,1.9341547838452495,-0.9797188946965494,12.99853373568115
1.713723121563012e+18,0.09458967469685432,-0.012521621483893127,0.011372506869955057,-1.2145529343412864,-5.212904807046697,10.206647463486075
1.713723121573012e+18,0.21998782493634894,-0.013374841411765339,0.028287783674761795,-1.8986503067597387,-6.385421568587364,7.783576120967243
1.713723121582012e+18,0.3207540641570523,0.02534110546511762,0.010024930057593745,1.2919287703505822,-1.9038544682356964,7.440137452507387
1.713723121592012e+18,0.2785822938088766,0.07718384117355664,-0.0014285613065873537,2.331850080214318,3.2548185534337506,8.21110834684971
1.713723121601012e+18,0.12102748826265466,0.0830460456198165,0.0023966851341877286,0.42594464864396314,6.645881125117651,9.687563606308832
1.713723121611012e+18,-0.10472082677167958,0.03922746440871465,0.009693969413722811,-1.594376845293796,8.344146575984114,10.522601053608003
1.713723121620012e+18,-0.2746042491847772,-0.022450776573915844,0.02376167914928091,-2.4970016595629945,6.6111486917310165,9.970469386470713
1.713723121630012e+18,-0.2780683638833766,-0.09602801257762425,0.023197496232288704,-2.130484687661922,1.3466309235431557,8.66743788297817
1.713723121639012e+18,-0.16828261283493018,-0.14190841414742045,0.040360768194635015,-2.662077076617328,-4.557196868891714,7.985597236187317
1.713723121649012e+18,-0.03230535883016087,-0.11965757919758353,0.04581354556122827,-1.3085979399143564,-6.1830107084002774,9.30628601940779
1.713723121659012e+18,0.04716501592655753,-0.011750106086265342,0.02789486685704201,3.600500320485533,-2.1641276435437224,12.006656571081312
1.713723121668012e+18,0.024777033866191688,0.08454563631730347,0.0024110407722974106,5.143799812661434,0.7894400424494357,13.227069964933701
1.713723121677012e+18,0.040089191497254366,0.0884573826637215,-0.008483469974686861,2.6704744890539427,-0.5853477893050576,12.42623139248117
1.713723121687012e+18,0.10965735082584833,0.015927245260647933,0.015333141418842053,-2.6136235520831326,-4.888165760045839,9.416173798738253
1.713723121696012e+18,0.2131944147354778,-0.03371641096958794,0.03325654801732603,-4.53364310262557,-6.179370546269061,7.674344058222954
1.713723121705012e+18,0.3046798441418287,-0.037734993901416145,0.023679465017860734,-0.4850702036477832,-1.2380338003642455,7.863405674646728
1.713723121716012e+18,0.24061213744513518,-0.002553353753915309,0.0001416271934223225,1.477477709225552,4.211899075508287,8.557621489362925
1.713723121724012e+18,0.08484519768727586,0.0134492063704389,0.014417633084495843,0.7255578702286773,6.831579335055738,9.753418692531778
1.713723121724084e+18,0.041427444363626706,0.014868624274923569,0.007913821318533784,-0.24510165135749531,8.354189117401662,10.209222446243164
1.713723121733084e+18,-0.15832473705755457,0.0001623403925053002,0.019953402470434648,-0.6302148571844691,7.469280235532401,10.495948532272354
1.713723121743084e+18,-0.31276836128061414,-0.007082180486967373,0.037976148154260154,0.2769076340713273,3.7176594818689885,9.388557763411427
1.713723121752084e+18,-0.2959541772011737,0.001243697271449472,0.02773399381110764,0.21209986841795925,-1.3375953851482592,8.851766248146069
1.7137231217620838e+18,-0.13394438657566957,-0.031909477265175484,0.022064894336751052,-2.3424057653793477,-6.850716779843883,8.108155805865223
1.713723121771084e+18,-0.04853311095664577,-0.04310483739653208,0.056434624519075396,-0.842422278955354,-5.5698030084580274,9.549535095196934
1.713723121781084e+18,0.05408357456516654,-0.015950057676037955,0.02159968540048985,2.593751547458104,0.0469733924473989,12.312199961564504
1.7137231217900838e+18,-0.0007286801350126506,0.02964334962807498,0.018515268322317254,2.3550205872513,1.231860147190472,13.215398067140292
1.713723121800084e+18,0.02643078417667352,0.01593041807993964,-0.008295486680663324,-0.8131982907310096,-2.921210711337438,12.148659037177758
1.713723121809084e+18,0.09245176020672886,-0.015784438162207898,0.02222983172034351,-2.9624740173986406,-7.097315716900858,8.879335849611145
1.713723121819084e+18,0.23097280007450557,-0.030067443274522803,0.030319090510845813,0.18785008637123374,-3.7926976407281314,7.215346790835457
1.713723121829084e+18,0.3011232212940845,0.008113083704266567,0.0011308064144909067,2.301664010137491,1.995224198984757,7.886630025340046
1.713723121837084e+18,0.23016153213470342,0.05142530843473454,0.004204343194782265,1.2108900120692516,5.796991926417177,8.951270056133788
1.713723121847084e+18,0.03855725355918098,0.06360236524083238,0.01082352030153218,-0.45444090612119126,8.376761737796585,10.54464685356549
1.713723121857084e+18,-0.1786313718193378,0.033345897182466055,0.023549777210926794,-1.4297792369993287,7.106638090916067,10.342627018217359
1.7137231218660838e+18,-0.30423311095849376,-0.0029268490890927016,0.041172524496284724,-1.1561551169338429,3.1762661236439502,9.204269604803969
1.713723121875084e+18,-0.24757096317707034,-0.0527703385224555,0.027711506380848485,-2.315316899312062,-2.789042774699763,8.283835607647445
1.713723121885084e+18,-0.12830934132379826,-0.09335502066111966,0.05458280443007618,-2.3753564363550286,-6.654289510352217,8.241109694228502
1.7137231218940838e+18,-0.01993672688540814,-0.0743498611739881,0.05273006665607151,1.8543914510198152,-3.4090701824510825,10.170230839976636
1.713723121904084e+18,0.026694358001922408,0.006366447594654001,0.02729588833101563,4.139499248505353,0.6883478797372601,12.470815195640203
1.7137231219140838e+18,-0.0034301696347010294,0.06899328589096661,0.011298569263737653,2.1336464169527773,0.3126175665073523,13.412847316170065
1.713723121923084e+18,0.05257756065805345,0.029750004235341822,0.0027626992129884567,-2.895360472314065,-4.8311689109647835,11.603115583529007
1.713723121932084e+18,0.12109191050048927,-0.02575278456369013,0.04606005400158537,-3.300448865639816,-6.928533629668435,8.707237130177642
1.7137231219420838e+18,0.26321324284454145,-0.03916826123367381,0.029486427379098214,1.404940362097774,-1.9265985684244311,7.533642723517776
1.713723121951084e+18,0.3089453623705728,-0.004917395020435073,-0.0005882013514350902,2.2608320479253887,2.7251888626603806,7.654418744708311
1.713723121961084e+18,0.1958930802937841,0.031487230513373696,0.0018469463548161464,0.8222879541134911,6.1863572256395605,8.924641226055087
1.713723121971084e+18,-0.011627326795635513,0.031093833068524725,0.012112238746543161,-0.3530225225125906,8.148478612164235,10.420237521933881
1.713723121980084e+18,-0.2058305814407915,0.013000301670008083,0.013871607629445913,-0.5514790277784388,6.592424150097957,10.153527496594005
1.713723121989084e+18,-0.32730961417107846,0.008702018325828462,0.03384082161755649,0.44722037377481966,2.776276679210458,9.022554957842342
1.713723121999084e+18,-0.2711911897835707,0.0060745211377256116,0.008784085565266995,-0.4182765871763817,-2.6347612929030992,8.825108226863161
1.713723122008084e+18,-0.11398457340426156,-0.032191433352023624,0.010258272206424992,-3.0778382217724904,-7.74902180747508,8.618962920899556
1.7137231220180838e+18,-0.007474844684857155,-0.04220920896292187,0.03901505912761401,-0.3214420770938487,-4.5865865367906675,10.339492119586803
1.713723122027084e+18,0.07324034138299569,-0.009399113965544539,-0.004893996876857153,3.131929386425445,0.9683059408360526,12.486429432273612
1.713723122036084e+18,8.252477506880858e-05,0.04616993818697334,0.0020264967972377134,2.4101199254712014,1.6312766866282835,12.879735884768696
1.7137231220460838e+18,0.003983415346405448,0.03747445596744581,-0.02483728187389848,-0.8994988530956938,-1.9751714501251234,11.809375246706454
1.713723122055084e+18,0.07940896489187217,-0.0031827372049788457,0.006386273594739448,-3.166461601464516,-6.327534712560741,8.574785619910966
1.713723122065084e+18,0.18388650609689247,-0.027362950480029756,0.022217748970111424,-0.3761068139914838,-3.634908933080104,7.322274302951341
1.7137231220740838e+18,0.28016825493584785,-0.017854603963108437,-0.010996791448171596,1.9106149826257985,1.572155306606645,7.869964831932042
1.713723122084084e+18,0.18665544533851078,0.03224617629281705,0.0007844954237153706,1.3587069825210512,5.26897146247245,9.071063467308704
1.7137231220940838e+18,0.001773171944063529,0.05257593194427563,-0.0046198532768876865,0.040662028268480394,7.563611391540882,10.956921193701223
1.713723122103084e+18,-0.17182755390977694,0.038684119712834794,0.007449087682309533,-0.8306738545096019,6.228953837318296,10.415650390899238
1.713723122112084e+18,-0.2858082656157228,0.013534652857111154,0.019235312479973114,-0.6105977997677935,2.6820677997247193,9.220904222148643
1.7137231221220838e+18,-0.1985849030798978,-0.04193885824978887,-0.006556398231016693,-2.57921558522161,-3.702197397156203,8.154659374985119
1.713723122131084e+18,-0.10244449061476342,-0.08157666080819798,0.03327185814968369,-2.490298626026633,-6.583480903563997,8.194249121730842
1.713723122141084e+18,0.03851488317813978,-0.06544558801352499,0.01579892898301771,2.2526388233321426,-2.191171405239997,9.97366891450677
1.7137231221500838e+18,0.048585215636344777,0.015480011781783473,0.0049119964746034955,3.875137740753085,1.6821183977599241,12.206053190251204
1.713723122160084e+18,-0.01699113929115577,0.08684425472086418,-0.015016822957811718,2.5361271187070074,2.2396553180361036,13.04786446294215
1.713723122169084e+18,-0.02198969996156616,0.05586522244390276,-0.012206105668628344,-2.312271693150407,-2.427340207882538,11.778638603228519
1.713723122179084e+18,0.05091679889207021,-0.03131051518798541,0.006223776245510505,-4.8459206558603904,-7.281529606487511,8.64187851051882
1.713723122188084e+18,0.16551617807627983,-0.06296297362513187,0.039503494906191115,-0.4780288981363452,-3.8462149178210896,7.705236087105973
1.713723122197084e+18,0.26587541822294974,-0.04902324254797253,-0.0190761716640408,2.4516634011950766,1.5279373500721583,8.26317552354208
1.713723122207084e+18,0.20312491308131353,0.00799811631326204,-0.004239558808973517,1.931720296688605,4.41887742308002,8.96919411715263
1.713723122216084e+18,0.05405218781999645,0.0441552780957003,-0.01353573397710252,0.6628832495150203,6.7034087915488945,10.625922674200506
1.7137231222260838e+18,-0.13511429198592112,0.04951249045629625,-0.0023188753964384834,-0.21968703044328516,5.9784432868212996,10.315782537308635
1.713723122235084e+18,-0.25624283618629884,0.03949549529654133,0.013142116865637814,-0.14738538233581777,3.042035015886161,9.367827157501434
1.713723122245084e+18,-0.2144868075510281,0.007704951432193744,-0.019505418373146198,-2.009880205969231,-1.9340266506103203,8.747366215377237
1.7137231222540838e+18,-0.10548613951872142,-0.060102584622313646,0.011327885782859162,-3.926499993959009,-6.278816103629355,8.421032650764879
1.713723122264084e+18,-0.012131687361542628,-0.08423247156627175,0.030770246386864094,-0.1253132889076178,-3.2471735953014287,10.108729758362342
1.7137231222740838e+18,0.04217568859954001,-0.030771974161666483,0.00974375031132403,3.5886135543689255,1.22768586551865,12.055060019334297
1.713723122283084e+18,-0.013892651311194786,0.05352214101760157,0.012040029099089737,3.3649249928225986,1.3807375653502996,12.28951516372837
1.713723122292084e+18,-0.010169688399743589,0.07743615468657566,0.0047485787403379305,0.2468126040934073,-1.6783629649060785,11.435290511908239
1.7137231223020838e+18,0.07546771473180872,0.035059982820347474,0.01427541923299484,-3.480813223959781,-6.012445661924024,8.653568925459105
1.713723122312084e+18,0.16630250898515592,-0.00211779927652673,0.06329619076309191,-2.201954011819262,-3.290719703615524,7.910700595650404
1.713723122321084e+18,0.24471145379940112,-0.014857397853703748,0.022874830012989733,0.5310748821095816,2.1360904330724786,8.499799822536128
1.7137231223300838e+18,0.15570056259229154,0.01726141757353061,0.05739119786170191,0.6173009549327368,5.113595268938182,9.408106859558055
1.713723122339084e+18,0.014115180326171893,0.036338340449214426,0.039958608524867135,0.0346717473875357,6.771853188231674,10.584682669454251
1.713723122349084e+18,-0.15787749591053313,0.037419225891329844,0.06116468606772079,-0.7210820140048817,5.4061316568445,9.800645569958027
1.713723122359084e+18,-0.2432074123069769,0.008503519073723336,0.06387578951861056,-1.5959557082184204,1.8213945054144403,9.130983827497577
