t,gx,gy,gz,ax,ay,az
1689018012689808961,0.03941478580236435,-0.09480853378772736,-0.011717909015715122,-0.4704606235027313,-0.19273322820663452,9.860519409179688
1689018012699808961,0.03941478580236435,-0.06604639440774918,-0.006391586735844612,-0.386663556098938,-0.25737667083740234,9.916783332824707
1689018012708808961,0.03302319720387459,-0.03834952041506767,0.007456851191818714,-0.24420857429504395,-0.304063618183136,9.96825885772705
1689018012718808961,0.02876213937997818,-0.011717909015715122,0.01810949482023716,-0.16519992053508759,-0.23702596127986908,10.06043529510498
1689018012728808961,0.02556634694337845,0.013848437927663326,0.026631610468029976,-0.12928688526153564,-0.17717091739177704,10.129867553710938
1689018012737808961,0.022370552644133568,0.04048004746437073,0.029827404767274857,-0.14724339544773102,-0.20231004059314728,10.17416000366211
1689018012747808961,0.014913702383637428,0.06924218684434891,0.04261057823896408,-0.18076223134994507,-0.39145198464393616,10.160991668701172
1689018012756808961,0.001065264455974102,0.09480853378772736,0.07243797928094864,-0.1867477297782898,-0.5398924946784973,10.131064414978027
1689018012766808961,-0.01065264455974102,0.11717908829450607,0.1022653877735138,-0.1759738177061081,-0.4644751250743866,10.11909294128418
1689018012776808961,-0.01810949482023716,0.13315805792808533,0.1257012039422989,-0.12449848651885986,-0.3315969407558441,10.099939346313477
1689018012785808961,-0.022370552644133568,0.1438107043504715,0.148071750998497,-0.05147533491253853,-0.27892449498176575,10.071208953857422
1689018012794808961,-0.02556634694337845,0.15020228922367096,0.16831177473068237,-0.040701426565647125,-0.27413609623908997,10.014945983886719
1689018012804808961,-0.027696875855326653,0.15659387409687042,0.18322548270225525,-0.104147769510746,-0.2693476974964142,9.975440979003906
1689018012814808961,-0.027696875855326653,0.16085493564605713,0.18855179846286774,-0.22505494952201843,-0.23582886159420013,9.947907447814941
1689018012823808961,-0.02556634694337845,0.16511598229408264,0.185356006026268,-0.38067805767059326,-0.16160860657691956,9.920374870300293
1689018012834808961,-0.022370552644133568,0.1672465205192566,0.1715075671672821,-0.47405192255973816,-0.11611878126859665,9.906009674072266
1689018012843808961,-0.017044231295585632,0.1672465205192566,0.15126754343509674,-0.5147533416748047,-0.08978256583213806,9.87967300415039
1689018012853683885,-0.013848437927663326,0.16298545897006989,0.12463594228029251,-0.5446808934211731,-0.08978256583213806,9.870096206665039
1689018012863683885,-0.011717909015715122,0.15446333587169647,0.09480853378772736,-0.5734112858772278,-0.10773907601833344,9.890446662902832
1689018012872683885,-0.009587380103766918,0.14061491191387177,0.06711165606975555,-0.6021417379379272,-0.13168108463287354,9.890446662902832
1689018012882683885,-0.006391586735844612,0.13102751970291138,0.044741105288267136,-0.6105214357376099,-0.11133037507534027,9.883264541625977
1689018012891683885,-0.003195793367922306,0.12144014239311218,0.022370552644133568,-0.5674257874488831,-0.0454898327589035,9.88086986541748
1689018012901683885,-0.001065264455974102,0.10759171098470688,0.00532632227987051,-0.447715699672699,-0.03232172131538391,9.898826599121094
1689018012911683885,-0.001065264455974102,0.0884169489145279,-0.002130528911948204,-0.3172317147254944,-0.05746084079146385,9.93833065032959
1689018012920683885,-0.001065264455974102,0.0649811327457428,-0.001065264455974102,-0.23104046285152435,-0.035913024097681046,9.955090522766113
1689018012930683885,0.001065264455974102,0.04048004746437073,-0.002130528911948204,-0.23343466222286224,0.0586579404771328,9.931148529052734
1689018012940683885,0.008522115647792816,0.017044231295585632,-0.007456851191818714,-0.23942016065120697,0.12689268589019775,9.895235061645508
1689018012949683885,0.020240023732185364,-0.004261057823896408,-0.004261057823896408,-0.1604115068912506,0.11611878126859665,9.841365814208984
1689018012959683885,0.03195793181657791,-0.026631610468029976,-0.001065264455974102,-0.14365209639072418,0.11133037507534027,9.806650161743164
1689018012968683885,0.044741105288267136,-0.04687163606286049,-0.001065264455974102,-0.1999158412218094,0.12689268589019775,9.819818496704102
1689018012978683885,0.05645901337265968,-0.06711165606975555,-0.006391586735844612,-0.24420857429504395,0.104147769510746,9.829395294189453
1689018012987683885,0.0649811327457428,-0.08309062570333481,-0.015978965908288956,-0.295683890581131,0.05626373738050461,9.832985877990723
1689018012997683885,0.07030745595693588,-0.09480853378772736,-0.022370552644133568,-0.34356793761253357,0.021547814831137657,9.81383228302002
1689018013007683885,0.07243797928094864,-0.10546118021011353,-0.02556634694337845,-0.3711012601852417,-0.019153613597154617,9.783905029296875
1689018013017683885,0.07350324839353561,-0.11291802674531937,-0.030892668291926384,-0.39863458275794983,-0.07182604819536209,9.780313491821289
1689018013026683885,0.07350324839353561,-0.1203748807311058,-0.03302319720387459,-0.4357447028160095,-0.08978256583213806,9.781511306762695
1689018013035683885,0.07350324839353561,-0.1257012039422989,-0.03195793181657791,-0.47165772318840027,-0.090979665517807,9.750386238098145
1689018013045683885,0.07350324839353561,-0.12889699637889862,-0.034088462591171265,-0.47165772318840027,-0.09576806426048279,9.726444244384766
1689018013055683885,0.07456851005554199,-0.13315805792808533,-0.03834952041506767,-0.47644612193107605,-0.090979665517807,9.725247383117676
1689018013064683885,0.07243797928094864,-0.13848437368869781,-0.04580637067556381,-0.5183446407318115,-0.11372458189725876,9.718064308166504
1689018013074683885,0.06604639440774918,-0.14168016612529755,-0.052197955548763275,-0.5710170865058899,-0.1412578970193863,9.708487510681152
1689018013083683885,0.05965480953454971,-0.1438107043504715,-0.055393751710653305,-0.6057330369949341,-0.14844051003456116,9.685742378234863
1689018013093683885,0.052197955548763275,-0.1438107043504715,-0.05752427875995636,-0.6404489278793335,-0.15322890877723694,9.651026725769043
1689018013102683885,0.044741105288267136,-0.14061491191387177,-0.05752427875995636,-0.6739677786827087,-0.13168108463287354,9.63067626953125
1689018013112683885,0.03834952041506767,-0.13741911947727203,-0.05645901337265968,-0.6931213736534119,-0.0933738648891449,9.610325813293457
1689018013122683885,0.03302319720387459,-0.13315805792808533,-0.055393751710653305,-0.7062894701957703,-0.05985504016280174,9.606734275817871
1689018013131683885,0.02876213937997818,-0.12783172726631165,-0.055393751710653305,-0.729034423828125,-0.015562310814857483,9.624691009521484
1689018013141683885,0.024501081556081772,-0.12250541150569916,-0.05752427875995636,-0.7673416137695312,0.021547814831137657,9.63067626953125
1689018013150683885,0.022370552644133568,-0.11504855751991272,-0.05965480953454971,-0.8140285611152649,0.05027823522686958,9.643844604492188
1689018013160683885,0.02130528911948204,-0.10546118021011353,-0.05965480953454971,-0.8523358106613159,0.07900865375995636,9.655815124511719
1689018013170683885,0.023435818031430244,-0.092678003013134,-0.058589544147253036,-0.8702923059463501,0.08858545869588852,9.655815124511719
1689018013179683885,0.024501081556081772,-0.07776430249214172,-0.05432848632335663,-0.8846575021743774,0.0933738648891449,9.683348655700684
1689018013189683885,0.023435818031430244,-0.0649811327457428,-0.05006742849946022,-0.8798691034317017,0.09217676520347595,9.742006301879883
1689018013198683885,0.020240023732185364,-0.05432848632335663,-0.047936901450157166,-0.8475474119186401,0.07781155407428741,9.807847023010254
1689018013208683885,0.014913702383637428,-0.047936901450157166,-0.049002163112163544,-0.8068459630012512,0.05746084079146385,9.86889934539795
1689018013217683885,0.008522115647792816,-0.04261057823896408,-0.052197955548763275,-0.7613561153411865,0.031124621629714966,9.922768592834473
1689018013227683885,0.004261057823896408,-0.03941478580236435,-0.06072007119655609,-0.7098807692527771,0.009576806798577309,9.96945571899414
1689018013237683885,0.001065264455974102,-0.03941478580236435,-0.07243797928094864,-0.6500257253646851,-0.021547814831137657,10.000580787658691
1689018013246683885,-0.002130528911948204,-0.04048004746437073,-0.08522115647792816,-0.6057330369949341,-0.05267243832349777,10.018536567687988
1689018013256683885,-0.004261057823896408,-0.04048004746437073,-0.09480853378772736,-0.5865793824195862,-0.07900865375995636,10.029311180114746
1689018013265683885,-0.006391586735844612,-0.041545312851667404,-0.10120011866092682,-0.569819986820221,-0.11013327538967133,10.035296440124512
1689018013275683885,-0.009587380103766918,-0.041545312851667404,-0.10120011866092682,-0.5386953949928284,-0.14245499670505524,10.044873237609863
1689018013284683885,-0.009587380103766918,-0.03941478580236435,-0.09693906456232071,-0.5039794445037842,-0.17238251864910126,10.055646896362305
1689018013294683885,-0.011717909015715122,-0.037284255027770996,-0.092678003013134,-0.48482584953308105,-0.19033902883529663,10.065223693847656
1689018013304683885,-0.012783173471689224,-0.034088462591171265,-0.08735168725252151,-0.4728548228740692,-0.20709843933582306,10.06163215637207
1689018013313683885,-0.011717909015715122,-0.030892668291926384,-0.08415588736534119,-0.45848962664604187,-0.2214636504650116,10.062829971313477
1689018013324683885,-0.011717909015715122,-0.026631610468029976,-0.0788295716047287,-0.4129997789859772,-0.2346317619085312,10.070012092590332
1689018013333683885,-0.008522115647792816,-0.02556634694337845,-0.07456851005554199,-0.3579331338405609,-0.22864626348018646,10.06163215637207
1689018013342683885,-0.004261057823896408,-0.022370552644133568,-0.07030745595693588,-0.33279404044151306,-0.19871874153614044,10.044873237609863
1689018013351683885,0.002130528911948204,-0.020240023732185364,-0.06604639440774918,-0.32680851221084595,-0.16879121959209442,10.02691650390625
1689018013361683885,0.012783173471689224,-0.017044231295585632,-0.06178533658385277,-0.2992752194404602,-0.15562310814857483,10.007762908935547
1689018013371683885,0.023435818031430244,-0.012783173471689224,-0.05752427875995636,-0.243011474609375,-0.16400282084941864,9.974244117736816
1689018013380683885,0.03302319720387459,-0.011717909015715122,-0.055393751710653305,-0.17836801707744598,-0.1843535304069519,9.9371337890625
1689018013391683885,0.04367584362626076,-0.01065264455974102,-0.05326322093605995,-0.1364694982767105,-0.20111294090747833,9.910798072814941
1689018013399683885,0.05432848632335663,-0.009587380103766918,-0.05006742849946022,-0.104147769510746,-0.21188685297966003,9.888052940368652
1689018013409683885,0.06604639440774918,-0.007456851191818714,-0.04580637067556381,-0.0694318488240242,-0.2238578498363495,9.871293067932129
1689018013419683885,0.07563377171754837,-0.007456851191818714,-0.041545312851667404,-0.05267243832349777,-0.22266075015068054,9.84495735168457
1689018013428683885,0.08309062570333481,-0.00532632227987051,-0.03515372797846794,-0.03711012750864029,-0.21428105235099792,9.806650161743164
1689018013438683885,0.08948221057653427,-0.00532632227987051,-0.030892668291926384,-0.008379706181585789,-0.2059013396501541,9.782708168029785
1689018013448683885,0.09374327212572098,-0.007456851191818714,-0.026631610468029976,0.02992752008140087,-0.20350714027881622,9.762357711791992
1689018013457683885,0.09480853378772736,-0.012783173471689224,-0.026631610468029976,0.05147533491253853,-0.19033902883529663,9.736021041870117
1689018013466683885,0.09374327212572098,-0.019174760207533836,-0.026631610468029976,0.06224924325942993,-0.15562310814857483,9.718064308166504
1689018013476683885,0.09054747968912125,-0.02556634694337845,-0.02556634694337845,0.08978256583213806,-0.1149216815829277,9.703699111938477
1689018013486683885,0.08628641813993454,-0.03302319720387459,-0.022370552644133568,0.10055647045373917,-0.06823474913835526,9.685742378234863
1689018013495683885,0.08096009492874146,-0.04261057823896408,-0.02130528911948204,0.09217676520347595,-0.016759412363171577,9.66658878326416
1689018013505683885,0.07350324839353561,-0.0511326938867569,-0.020240023732185364,0.10654197633266449,0.02274491637945175,9.667786598205566
1689018013515683885,0.0649811327457428,-0.06285060197114944,-0.022370552644133568,0.15682020783424377,0.05985504016280174,9.684545516967773
1689018013524683885,0.05432848632335663,-0.07669904083013535,-0.02876213937997818,0.20111294090747833,0.10175357013940811,9.703699111938477
1689018013534683885,0.04367584362626076,-0.09161274135112762,-0.03941478580236435,0.2059013396501541,0.13287819921970367,9.733627319335938
1689018013543683885,0.03195793181657791,-0.10759171098470688,-0.05326322093605995,0.20470423996448517,0.16400282084941864,9.750386238098145
1689018013553683885,0.023435818031430244,-0.12357067316770554,-0.06817692518234253,0.208295539021492,0.19632454216480255,9.725247383117676
1689018013562683885,0.017044231295585632,-0.13528858125209808,-0.08309062570333481,0.20111294090747833,0.2238578498363495,9.676165580749512
1689018013572683885,0.011717909015715122,-0.14487595856189728,-0.09374327212572098,0.1867477297782898,0.24181437492370605,9.648633003234863
1689018013582683885,0.009587380103766918,-0.15020228922367096,-0.1022653877735138,0.16160860657691956,0.272938996553421,9.637858390808105
1689018013591683885,0.009587380103766918,-0.15446333587169647,-0.1065264418721199,0.11252747476100922,0.3148375153541565,9.622296333312988
1689018013601683885,0.01065264455974102,-0.15446333587169647,-0.10759171098470688,0.0454898327589035,0.3387795388698578,9.601945877075195
1689018013610683885,0.01065264455974102,-0.15020228922367096,-0.10546118021011353,-0.014365210197865963,0.3471592366695404,9.603142738342285
1689018013620683885,0.01065264455974102,-0.14274543523788452,-0.10120011866092682,-0.06823474913835526,0.3495534360408783,9.612719535827637
1689018013630683885,0.01065264455974102,-0.1342233121395111,-0.09480853378772736,-0.1388636976480484,0.3519476354122162,9.617507934570312
1689018013639683885,0.011717909015715122,-0.12463594228029251,-0.0884169489145279,-0.16998831927776337,0.3543418347835541,9.634267807006836
1689018013649683885,0.011717909015715122,-0.1161138266324997,-0.08309062570333481,-0.181959331035614,0.35314473509788513,9.670180320739746
1689018013658683885,0.012783173471689224,-0.1065264418721199,-0.08202536404132843,-0.2106897532939911,0.35673603415489197,9.702502250671387
1689018013668683885,0.013848437927663326,-0.09587380290031433,-0.08415588736534119,-0.24420857429504395,0.37229835987091064,9.739612579345703
1689018013677683885,0.014913702383637428,-0.08735168725252151,-0.08948221057653427,-0.28131869435310364,0.37469255924224854,9.77791976928711
1689018013687683885,0.015978965908288956,-0.07563377171754837,-0.10013485699892044,-0.31842881441116333,0.3687070608139038,9.792284965515137
1689018013697683885,0.015978965908288956,-0.06285060197114944,-0.11185276508331299,-0.363918662071228,0.36750996112823486,9.791088104248047
1689018013707683885,0.015978965908288956,-0.049002163112163544,-0.12357067316770554,-0.3926490843296051,0.36750996112823486,9.780313491821289
1689018013716683885,0.015978965908288956,-0.03515372797846794,-0.13315805792808533,-0.3998316824436188,0.36152446269989014,9.75637149810791
1689018013725683885,0.014913702383637428,-0.019174760207533836,-0.13741911947727203,-0.38786065578460693,0.3543418347835541,9.739612579345703
1689018013735683885,0.013848437927663326,-0.003195793367922306,-0.13741911947727203,-0.3471592366695404,0.3543418347835541,9.728838920593262
1689018013745683885,0.012783173471689224,0.012783173471689224,-0.1342233121395111,-0.3100491166114807,0.3603273630142212,9.730035781860352
1689018013754683885,0.012783173471689224,0.02876213937997818,-0.13209278881549835,-0.29807811975479126,0.35075053572654724,9.742006301879883
1689018013764683885,0.013848437927663326,0.04261057823896408,-0.13315805792808533,-0.2861070930957794,0.33758243918418884,9.75397777557373
1689018013773683885,0.011717909015715122,0.05752427875995636,-0.1342233121395111,-0.24660277366638184,0.33279404044151306,9.775525093078613
1689018013783683885,0.009587380103766918,0.06924218684434891,-0.1342233121395111,-0.17956513166427612,0.3076549172401428,9.792284965515137
1689018013792683885,0.004261057823896408,0.07776430249214172,-0.13528858125209808,-0.08738835901021957,0.2753331959247589,9.803058624267578
1689018013802683885,-0.002130528911948204,0.08309062570333481,-0.1342233121395111,-0.004788403399288654,0.2621650695800781,9.81024169921875
1689018013812683885,-0.008522115647792816,0.08628641813993454,-0.12889699637889862,0.06344634294509888,0.26336216926574707,9.819818496704102
1689018013822683885,-0.015978965908288956,0.0884169489145279,-0.11930961906909943,0.1364694982767105,0.26815059781074524,9.824606895446777
1689018013831683885,-0.022370552644133568,0.08948221057653427,-0.10865697264671326,0.1975216418504715,0.27054479718208313,9.818620681762695
1689018013840683885,-0.029827404767274857,0.08948221057653427,-0.09693906456232071,0.2561795711517334,0.26815059781074524,9.807847023010254
1689018013850683885,-0.03834952041506767,0.0884169489145279,-0.08628641813993454,0.31364041566848755,0.2693476974964142,9.804255485534668
1689018013859683885,-0.04687163606286049,0.08522115647792816,-0.07989483326673508,0.35075053572654724,0.2801215946674347,9.805453300476074
1689018013869683885,-0.05645901337265968,0.08096009492874146,-0.07243797928094864,0.3711012601852417,0.2992752194404602,9.798270225524902
1689018013879683885,-0.0649811327457428,0.07669904083013535,-0.0649811327457428,0.3758896589279175,0.32202011346817017,9.794678688049316
1689018013889683885,-0.07137271761894226,0.07456851005554199,-0.05752427875995636,0.37828385829925537,0.3363853394985199,9.78869342803955
1689018013898683885,-0.0788295716047287,0.07243797928094864,-0.052197955548763275,0.38067805767059326,0.3315969407558441,9.795876502990723
1689018013907683885,-0.08415588736534119,0.07137271761894226,-0.0511326938867569,0.36750996112823486,0.3387795388698578,9.823409080505371
1689018013917683885,-0.08948221057653427,0.06924218684434891,-0.049002163112163544,0.3842693567276001,0.35673603415489197,9.858125686645508
1689018013927683885,-0.09480853378772736,0.06604639440774918,-0.04687163606286049,0.4213795065879822,0.3711012601852417,9.907206535339355
1689018013936683885,-0.10013485699892044,0.05965480953454971,-0.041545312851667404,0.4273650050163269,0.40222588181495667,9.945513725280762
1689018013946683885,-0.10333064943552017,0.052197955548763275,-0.03621898964047432,0.395043283700943,0.45250412821769714,9.944316864013672
1689018013955683885,-0.10333064943552017,0.049002163112163544,-0.027696875855326653,0.33758243918418884,0.5135562419891357,9.927556991577148
1689018013965683885,-0.09906959533691406,0.049002163112163544,-0.015978965908288956,0.2693476974964142,0.5853822827339172,9.915586471557617
1689018013974683885,-0.09374327212572098,0.0511326938867569,0.0,0.19632454216480255,0.6500257253646851,9.886856079101562
1689018013984683885,-0.08522115647792816,0.05752427875995636,0.020240023732185364,0.11013327538967133,0.7230489253997803,9.853337287902832
1689018013994683885,-0.07456851005554199,0.06604639440774918,0.04580637067556381,0.014365210197865963,0.8020575642585754,9.825803756713867
1689018014004683885,-0.0649811327457428,0.07669904083013535,0.06924218684434891,-0.08978256583213806,0.872686505317688,9.81263542175293
1689018014013683885,-0.05326322093605995,0.0884169489145279,0.09161274135112762,-0.22266075015068054,0.9564835429191589,9.804255485534668
1689018014023683885,-0.04367584362626076,0.10333064943552017,0.11078750342130661,-0.3387795388698578,1.0295066833496094,9.792284965515137
1689018014032683885,-0.034088462591171265,0.1161138266324997,0.12463594228029251,-0.4058171808719635,1.071405291557312,9.803058624267578
1689018014042683885,-0.027696875855326653,0.12676647305488586,0.1299622654914856,-0.44173020124435425,1.0845733880996704,9.840168952941895
1689018014051683885,-0.023435818031430244,0.13315805792808533,0.12250541150569916,-0.4692635238170624,1.0809820890426636,9.892841339111328
1689018014061683885,-0.02130528911948204,0.13528858125209808,0.1065264418721199,-0.4884171485900879,1.0845733880996704,9.950302124023438
1689018014071683885,-0.022370552644133568,0.1342233121395111,0.08628641813993454,-0.507570743560791,1.1025298833847046,10.005369186401367
1689018014080683885,-0.024501081556081772,0.1342233121395111,0.06391586363315582,-0.5422866940498352,1.1300631761550903,10.032901763916016
1689018014089683885,-0.026631610468029976,0.13315805792808533,0.03941478580236435,-0.5638344883918762,1.1516109704971313,10.052055358886719
1689018014099683885,-0.027696875855326653,0.1299622654914856,0.014913702383637428,-0.5374982953071594,1.159990668296814,10.067618370056152
1689018014109683885,-0.029827404767274857,0.1257012039422989,-0.007456851191818714,-0.4752490222454071,1.1683703660964966,10.070012092590332
1689018014118683885,-0.030892668291926384,0.11824434995651245,-0.03302319720387459,-0.386663556098938,1.161187767982483,10.0580415725708
1689018014128683885,-0.030892668291926384,0.10865697264671326,-0.05965480953454971,-0.2861070930957794,1.1336544752120972,10.023324966430664
1689018014137683885,-0.030892668291926384,0.09906959533691406,-0.08522115647792816,-0.208295539021492,1.1085153818130493,9.981427192687988
1689018014147683885,-0.029827404767274857,0.09054747968912125,-0.1065264418721199,-0.1628057062625885,1.0857704877853394,9.93474006652832
1689018014157683885,-0.026631610468029976,0.08309062570333481,-0.12357067316770554,-0.1256955862045288,1.0749965906143188,9.876081466674805
1689018014166683885,-0.02130528911948204,0.0788295716047287,-0.13315805792808533,-0.11133037507534027,1.07379949092865,9.81024169921875
1689018014176683885,-0.014913702383637428,0.07776430249214172,-0.13528858125209808,-0.10893617570400238,1.07379949092865,9.75517463684082
1689018014186683885,-0.006391586735844612,0.07669904083013535,-0.1299622654914856,-0.07661445438861847,1.0690110921859741,9.732429504394531
1689018014195683885,0.001065264455974102,0.07456851005554199,-0.1203748807311058,-0.03711012750864029,1.072602391242981,9.730035781860352
1689018014205683885,0.009587380103766918,0.07243797928094864,-0.10759171098470688,-0.02274491637945175,1.072602391242981,9.734824180603027
1689018014214683885,0.01810949482023716,0.07030745595693588,-0.092678003013134,-0.02274491637945175,1.0690110921859741,9.751583099365234
1689018014224683885,0.024501081556081772,0.06817692518234253,-0.07669904083013535,-0.04189852997660637,1.095347285270691,9.765948295593262
1689018014233683885,0.03302319720387459,0.06604639440774918,-0.06178533658385277,-0.11372458189725876,1.1444283723831177,9.75637149810791
1689018014243683885,0.04261057823896408,0.06711165606975555,-0.047936901450157166,-0.2346317619085312,1.2018892765045166,9.733627319335938
1689018014253683885,0.0511326938867569,0.07137271761894226,-0.03302319720387459,-0.37229835987091064,1.2449848651885986,9.733627319335938
1689018014262683885,0.058589544147253036,0.07456851005554199,-0.019174760207533836,-0.4800374209880829,1.2665326595306396,9.759963035583496
1689018014272683885,0.06178533658385277,0.07776430249214172,-0.008522115647792816,-0.5793967843055725,1.279700756072998,9.78869342803955
1689018014281683885,0.06072007119655609,0.07989483326673508,-0.004261057823896408,-0.6787561774253845,1.2844891548156738,9.81383228302002
1689018014291683885,0.05432848632335663,0.08202536404132843,-0.006391586735844612,-0.772130012512207,1.2940659523010254,9.853337287902832
1689018014300683885,0.04580637067556381,0.07989483326673508,-0.014913702383637428,-0.8607155084609985,1.3060369491577148,9.872490882873535
1689018014310683885,0.03302319720387459,0.07776430249214172,-0.03195793181657791,-0.9014168977737427,1.3072340488433838,9.84735107421875
1689018014320683885,0.019174760207533836,0.07030745595693588,-0.05752427875995636,-0.8930371999740601,1.3060369491577148,9.836577415466309
1689018014329683885,0.003195793367922306,0.05965480953454971,-0.08628641813993454,-0.8655039072036743,1.2892775535583496,9.859322547912598
1689018014339683885,-0.01810949482023716,0.04367584362626076,-0.11824434995651245,-0.8619126081466675,1.2557587623596191,9.882067680358887
1689018014348683885,-0.04261057823896408,0.02556634694337845,-0.14594122767448425,-0.8966284990310669,1.238999366760254,9.892841339111328
1689018014358683885,-0.06817692518234253,0.008522115647792816,-0.16618125140666962,-0.9301473498344421,1.2306196689605713,9.884461402893066
1689018014367683885,-0.092678003013134,-0.007456851191818714,-0.17789916694164276,-0.9433154463768005,1.216254472732544,9.84376049041748
1689018014377683885,-0.11291802674531937,-0.022370552644133568,-0.18002969026565552,-0.9253589510917664,1.1971008777618408,9.786299705505371
1689018014387683885,-0.12889699637889862,-0.03515372797846794,-0.1757686287164688,-0.8858546018600464,1.1959037780761719,9.736021041870117
1689018014396683885,-0.13848437368869781,-0.044741105288267136,-0.1619201898574829,-0.8595184087753296,1.215057373046875,9.708487510681152
1689018014406683885,-0.14168016612529755,-0.0511326938867569,-0.13848437368869781,-0.8702923059463501,1.2306196689605713,9.682151794433594
1689018014416683885,-0.1395496428012848,-0.05326322093605995,-0.10972223430871964,-0.9038110971450806,1.2557587623596191,9.642646789550781
1689018014425683885,-0.13315805792808533,-0.05326322093605995,-0.07669904083013535,-0.93254154920578,1.278503656387329,9.621099472045898
1689018014435683885,-0.12463594228029251,-0.05006742849946022,-0.041545312851667404,-0.9576806426048279,1.2952630519866943,9.619902610778809
1689018014444683885,-0.11398329585790634,-0.04687163606286049,-0.00532632227987051,-0.9780313968658447,1.3180080652236938,9.63187313079834
1689018014454683885,-0.10439591109752655,-0.041545312851667404,0.029827404767274857,-1.0007762908935547,1.3263877630233765,9.63067626953125
1689018014463683885,-0.092678003013134,-0.03515372797846794,0.06178533658385277,-0.9888052940368652,1.3263877630233765,9.615114212036133
1689018014473683885,-0.08628641813993454,-0.03302319720387459,0.08522115647792816,-0.9493009448051453,1.337161660194397,9.637858390808105
1689018014483683885,-0.08522115647792816,-0.03515372797846794,0.10120011866092682,-0.9409212470054626,1.3503297567367554,9.691728591918945
1689018014492683885,-0.0884169489145279,-0.041545312851667404,0.1065264418721199,-0.9457096457481384,1.3646949529647827,9.731232643127441
1689018014502683885,-0.09906959533691406,-0.0511326938867569,0.10439591109752655,-0.9193734526634216,1.3778630495071411,9.775525093078613
1689018014511683885,-0.11185276508331299,-0.06817692518234253,0.09161274135112762,-0.8523358106613159,1.3730746507644653,9.798270225524902
1689018014521683885,-0.1299622654914856,-0.0884169489145279,0.07350324839353561,-0.788889467716217,1.3730746507644653,9.818620681762695
1689018014531683885,-0.15126754343509674,-0.11504855751991272,0.047936901450157166,-0.7218518257141113,1.380257248878479,9.849745750427246
1689018014540683885,-0.17044231295585632,-0.14487595856189728,0.019174760207533836,-0.44412440061569214,1.256955862045288,9.815030097961426
1689018014550683885,-0.1949433982372284,-0.19174760580062866,0.003195793367922306,-0.20949263870716095,1.1959037780761719,9.75397777557373
1689018014559683885,-0.21198762953281403,-0.23435817658901215,-0.006391586735844612,-0.23343466222286224,1.2330138683319092,9.78989028930664
1689018014569683885,-0.222640261054039,-0.2684466242790222,-0.014913702383637428,-0.014365210197865963,1.0486602783203125,9.816226959228516
1689018014578683885,-0.22583605349063873,-0.29933929443359375,0.001065264455974102,0.02753331884741783,1.01753568649292,9.816226959228516
1689018014588683885,-0.21198762953281403,-0.3110572099685669,0.008522115647792816,-0.11372458189725876,1.0989385843276978,9.855731010437012
1689018014598683885,-0.185356006026268,-0.3099919557571411,0.01810949482023716,-0.11372458189725876,1.0809820890426636,9.858125686645508
1689018014607683885,-0.14700649678707123,-0.29401299357414246,0.020240023732185364,-0.23822306096553802,1.0965443849563599,9.81383228302002
1689018014617683885,-0.10013485699892044,-0.26738137006759644,0.007456851191818714,-0.3447650372982025,1.070208191871643,9.81383228302002
1689018014626683885,-0.05006742849946022,-0.2364886999130249,-0.01810949482023716,-0.39384618401527405,1.0187327861785889,9.864110946655273
1689018014636683885,0.001065264455974102,-0.20559602975845337,-0.06178533658385277,-0.38786065578460693,0.9289502501487732,9.873687744140625
1689018014646683885,0.047936901450157166,-0.17896442115306854,-0.11930961906909943,-0.34596213698387146,0.750582218170166,9.907206535339355
1689018014655683885,0.08202536404132843,-0.16085493564605713,-0.1715075671672821,-0.3280056416988373,0.43933600187301636,10.034099578857422
1689018014664683885,0.10120011866092682,-0.15020228922367096,-0.20985709130764008,-0.26336216926574707,0.05746084079146385,10.20887565612793
1689018014675683885,0.10546118021011353,-0.15020228922367096,-0.23755396902561188,-0.08858545869588852,-0.2717418968677521,10.436325073242188
1689018014684683885,0.10013485699892044,-0.15978966653347015,-0.26205503940582275,0.07781155407428741,-0.5219359397888184,10.682928085327148
1689018014693683885,0.08735168725252151,-0.1757686287164688,-0.28122982382774353,0.22744916379451752,-0.7362170219421387,10.858901977539062
1689018014703683885,0.07030745595693588,-0.19281286001205444,-0.2929477095603943,0.386663556098938,-0.8978255987167358,10.991780281066895
1689018014713683885,0.05326322093605995,-0.2087918221950531,-0.29401299357414246,0.4668693244457245,-0.9493009448051453,11.075576782226562
1689018014722683885,0.044741105288267136,-0.2173139452934265,-0.28549087047576904,0.4692635238170624,-0.8750807046890259,11.036072731018066
1689018014732683885,0.04687163606286049,-0.2173139452934265,-0.27483823895454407,0.4692635238170624,-0.729034423828125,10.933121681213379
1689018014742683885,0.05645901337265968,-0.21092236042022705,-0.2684466242790222,0.4620809257030487,-0.5889735817909241,10.84094524383545
1689018014751683885,0.07350324839353561,-0.1992044448852539,-0.2684466242790222,0.44651859998703003,-0.49559974670410156,10.758345603942871
1689018014761683885,0.09054747968912125,-0.18216021358966827,-0.27483823895454407,0.4141968786716461,-0.4668693244457245,10.682928085327148
1689018014770683885,0.1065264418721199,-0.16298545897006989,-0.2918824553489685,0.3842693567276001,-0.44651859998703003,10.606313705444336
1689018014780683885,0.12250541150569916,-0.14274543523788452,-0.3163835406303406,0.4058171808719635,-0.38307225704193115,10.51413631439209
1689018014790683885,0.13741911947727203,-0.12250541150569916,-0.3515372574329376,0.456095427274704,-0.28131869435310364,10.42195987701416
1689018014799683885,0.15020228922367096,-0.10333064943552017,-0.39095205068588257,0.48123452067375183,-0.1711854189634323,10.327388763427734
1689018014808683885,0.16405072808265686,-0.08415588736534119,-0.4303668439388275,0.5303156971931458,-0.06224924325942993,10.211270332336426
1689018014818683885,0.1757686287164688,-0.06604639440774918,-0.4644553065299988,0.591367781162262,0.02753331884741783,10.091560363769531
1689018014828683885,0.18429075181484222,-0.05006742849946022,-0.49002164602279663,0.5949591398239136,0.04668693244457245,10.001777648925781
1689018014837683885,0.18642127513885498,-0.034088462591171265,-0.5049353241920471,0.6129156351089478,0.023942016065120697,9.926360130310059
1689018014847683885,0.18322548270225525,-0.023435818031430244,-0.5060005784034729,0.6703764796257019,-0.004788403399288654,9.883264541625977
1689018014857683885,0.17363810539245605,-0.01810949482023716,-0.500674307346344,0.7062894701957703,-0.05147533491253853,9.864110946655273
1689018014866683885,0.16085493564605713,-0.015978965908288956,-0.49002164602279663,0.6811503767967224,-0.090979665517807,9.858125686645508
1689018014876683885,0.14274543523788452,-0.01810949482023716,-0.4687163531780243,0.6452373266220093,-0.1256955862045288,9.856927871704102
1689018014885683885,0.12250541150569916,-0.020240023732185364,-0.43888893723487854,0.5829880833625793,-0.16998831927776337,9.816226959228516
1689018014895683885,0.10333064943552017,-0.022370552644133568,-0.407996267080307,0.47644612193107605,-0.16759411990642548,9.736021041870117
1689018014904683885,0.08628641813993454,-0.023435818031430244,-0.3760383427143097,0.39863458275794983,-0.10773907601833344,9.673771858215332
1689018014914683885,0.07350324839353561,-0.02876213937997818,-0.3526025414466858,0.36152446269989014,-0.033518824726343155,9.635464668273926
1689018014924683885,0.06604639440774918,-0.03302319720387459,-0.3398193418979645,0.29807811975479126,0.06823474913835526,9.583989143371582
1689018014933683885,0.06604639440774918,-0.03941478580236435,-0.3376888334751129,0.13407529890537262,0.1867477297782898,9.527725219726562
1689018014943683885,0.07350324839353561,-0.04048004746437073,-0.33662354946136475,-0.017956512048840523,0.26336216926574707,9.411606788635254
1689018014952683885,0.08202536404132843,-0.03621898964047432,-0.3376888334751129,-0.04189852997660637,0.29209259152412415,9.338583946228027
1689018014962683885,0.09480853378772736,-0.03195793181657791,-0.3376888334751129,-0.04668693244457245,0.30885201692581177,9.29309368133545
1689018014971683885,0.10865697264671326,-0.02556634694337845,-0.3387540876865387,-0.12090718746185303,0.31364041566848755,9.23682975769043
1689018014982683885,0.1203748807311058,-0.015978965908288956,-0.33662354946136475,-0.1711854189634323,0.295683890581131,9.20091724395752
1689018014990683885,0.12783172726631165,-0.007456851191818714,-0.3344930410385132,-0.1843535304069519,0.27653029561042786,9.130288124084473
1689018015000683885,0.13209278881549835,0.001065264455974102,-0.3281014561653137,-0.21547815203666687,0.25258827209472656,9.064447402954102
1689018015010683885,0.13209278881549835,0.008522115647792816,-0.31744879484176636,-0.2346317619085312,0.2238578498363495,8.999804496765137
1689018015019683885,0.12889699637889862,0.01810949482023716,-0.3025350868701935,-0.28371289372444153,0.23582886159420013,8.914810180664062
1689018015029683885,0.12676647305488586,0.03195793181657791,-0.27590349316596985,-0.3687070608139038,0.2669534981250763,8.785523414611816
1689018015039683885,0.12676647305488586,0.0511326938867569,-0.23968449234962463,-0.386663556098938,0.2717418968677521,8.667010307312012
1689018015048683885,0.1257012039422989,0.07137271761894226,-0.19707392156124115,-0.3411737382411957,0.2693476974964142,8.619126319885254
1689018015057683885,0.12250541150569916,0.092678003013134,-0.14913702011108398,-0.30885201692581177,0.28371289372444153,8.633491516113281
1689018015067683885,0.1161138266324997,0.11185276508331299,-0.09693906456232071,-0.2825157940387726,0.2908954918384552,8.678980827331543
1689018015077683885,0.1065264418721199,0.1257012039422989,-0.04367584362626076,-0.2106897532939911,0.28730419278144836,8.736441612243652
1689018015087683885,0.092678003013134,0.1342233121395111,0.007456851191818714,-0.12689268589019775,0.29807811975479126,8.821435928344727
1689018015096683885,0.07776430249214172,0.1395496428012848,0.055393751710653305,-0.07900865375995636,0.32441431283950806,8.894458770751953
1689018015106683885,0.06604639440774918,0.1438107043504715,0.09693906456232071,-0.06584054231643677,0.37469255924224854,8.935160636901855
1689018015115683885,0.05326322093605995,0.148071750998497,0.1342233121395111,-0.05267243832349777,0.4620809257030487,8.992621421813965
1689018015125683885,0.044741105288267136,0.15020228922367096,0.1672465205192566,-0.011971008032560349,0.5590460896492004,9.060855865478516
1689018015134683885,0.03941478580236435,0.15126754343509674,0.19281286001205444,0.04668693244457245,0.6440402269363403,9.127893447875977
1689018015144683885,0.03515372797846794,0.14913702011108398,0.20772656798362732,0.0802057534456253,0.7625532150268555,9.222464561462402
1689018015153683885,0.03302319720387459,0.1438107043504715,0.2130528837442398,0.08140285313129425,0.8690952062606812,9.317035675048828
1689018015164683885,0.029827404767274857,0.1342233121395111,0.2045307755470276,0.10055647045373917,0.9349357485771179,9.380481719970703
1689018015173683885,0.02876213937997818,0.12250541150569916,0.18429075181484222,0.14604629576206207,0.970848798751831,9.453505516052246
1689018015182683885,0.026631610468029976,0.10972223430871964,0.15020228922367096,0.15322890877723694,0.9744400978088379,9.532513618469238
1689018015192683885,0.026631610468029976,0.10013485699892044,0.11185276508331299,0.12449848651885986,0.9840168952941895,9.564835548400879
1689018015202683885,0.02876213937997818,0.09480853378772736,0.07776430249214172,0.14006079733371735,1.0019733905792236,9.57560920715332
1689018015211683885,0.03302319720387459,0.09161274135112762,0.047936901450157166,0.19393032789230347,1.0115501880645752,9.601945877075195
1689018015221683885,0.04048004746437073,0.0884169489145279,0.022370552644133568,0.2621650695800781,0.9864110946655273,9.668983459472656
1689018015230683885,0.047936901450157166,0.08096009492874146,0.001065264455974102,0.3902548849582672,0.9397241473197937,9.774328231811523
1689018015240683885,0.052197955548763275,0.06924218684434891,-0.014913702383637428,0.5554547905921936,0.8655039072036743,9.90481185913086
1689018015249683885,0.052197955548763275,0.05432848632335663,-0.012783173471689224,0.7266402244567871,0.6428431272506714,10.078392028808594
1689018015259683885,0.03834952041506767,0.03941478580236435,0.02556634694337845,0.9481038451194763,0.24899697303771973,10.345345497131348
1689018015269683885,0.01065264455974102,0.02876213937997818,0.10439591109752655,1.0558428764343262,0.0071826050989329815,10.548852920532227
1689018015278683885,-0.008522115647792816,0.024501081556081772,0.19387812912464142,0.8930371999740601,0.21308395266532898,10.572794914245605
1689018015288683885,-0.008522115647792816,0.02876213937997818,0.2790992856025696,0.6536170244216919,0.6224924325942993,10.548852920532227
1689018015297683885,0.01065264455974102,0.04048004746437073,0.35047200322151184,0.3711012601852417,0.9780313968658447,10.550049781799316
1689018015307683885,0.041545312851667404,0.05752427875995636,0.4026699662208557,0.07302314788103104,1.2653355598449707,10.647014617919922
1689018015316683885,0.07563377171754837,0.07243797928094864,0.4314320981502533,-0.090979665517807,1.3670891523361206,10.892420768737793
1689018015326683885,0.10013485699892044,0.07563377171754837,0.42823630571365356,-0.1975216418504715,1.2617442607879639,11.218031883239746
1689018015335683885,0.11291802674531937,0.06924218684434891,0.39095205068588257,-0.3423708379268646,1.0749965906143188,11.532869338989258
1689018015346683885,0.11185276508331299,0.05965480953454971,0.3291667103767395,-0.5147533416748047,0.8427590131759644,11.786654472351074
1689018015354528053,0.10120011866092682,0.04580637067556381,0.24181503057479858,-0.6787561774253845,0.6224924325942993,11.942277908325195
1689018015363528053,0.0884169489145279,0.034088462591171265,0.14168016612529755,-0.8092401623725891,0.49559974670410156,11.961431503295898
1689018015373528053,0.0788295716047287,0.02876213937997818,0.05006742849946022,-0.8607155084609985,0.47884032130241394,11.853692054748535
1689018015382528053,0.07563377171754837,0.03302319720387459,-0.017044231295585632,-0.7852981686592102,0.5422866940498352,11.748347282409668
1689018015392528053,0.07669904083013535,0.04687163606286049,-0.049002163112163544,-0.6464344263076782,0.5662286877632141,11.598710060119629
1689018015402528053,0.08309062570333481,0.07243797928094864,-0.058589544147253036,-0.6105214357376099,0.7134720683097839,11.352107048034668
1689018015412528053,0.10333064943552017,0.10546118021011353,-0.05752427875995636,-0.5434837937355042,0.8966284990310669,11.036072731018066
1689018015421528053,0.13102751970291138,0.14061491191387177,-0.044741105288267136,-0.3842693567276001,0.9253589510917664,10.715249061584473
1689018015430528053,0.16511598229408264,0.1715075671672821,-0.022370552644133568,-0.264559268951416,0.912190854549408,10.441113471984863
1689018015440528053,0.20240023732185364,0.1992044448852539,0.00532632227987051,-0.21188685297966003,0.7852981686592102,10.1753568649292
1689018015449528053,0.2364886999130249,0.222640261054039,0.037284255027770996,-0.2669534981250763,0.606930136680603,9.896432876586914
1689018015459528053,0.2652508318424225,0.24181503057479858,0.06817692518234253,-0.3196259140968323,0.44412440061569214,9.66658878326416
1689018015469528053,0.2865561246871948,0.25246766209602356,0.08948221057653427,-0.30286651849746704,0.19632454216480255,9.533711433410645
1689018015478528053,0.2908172011375427,0.2545982003211975,0.10972223430871964,-0.2346317619085312,-0.18794482946395874,9.467870712280273
1689018015488528053,0.27164241671562195,0.24181503057479858,0.14274543523788452,-0.11133037507534027,-0.6619967818260193,9.403226852416992
1689018015497528053,0.22796659171581268,0.2183792144060135,0.1992044448852539,-0.011971008032560349,-0.9876081943511963,9.252392768859863
1689018015507528053,0.17363810539245605,0.185356006026268,0.25353294610977173,-0.002394201699644327,-0.9516951441764832,9.058462142944336
1689018015517528053,0.12250541150569916,0.14274543523788452,0.28016453981399536,0.02274491637945175,-0.7050923705101013,8.937554359436035
1689018015526528053,0.07137271761894226,0.09161274135112762,0.2790992856025696,0.08619125932455063,-0.49559974670410156,8.919598579406738
1689018015536528053,0.019174760207533836,0.037284255027770996,0.2514024078845978,0.035913024097681046,-0.304063618183136,8.961496353149414
1689018015545528053,-0.03302319720387459,-0.011717909015715122,0.19174760580062866,-0.17238251864910126,-0.03232172131538391,9.070432662963867
1689018015555528053,-0.08309062570333481,-0.05432848632335663,0.10972223430871964,-0.39145198464393616,0.20231004059314728,9.159018516540527
1689018015565528053,-0.13102751970291138,-0.08948221057653427,0.024501081556081772,-0.4967968463897705,0.28730419278144836,9.17697525024414
1689018015574528053,-0.17257283627986908,-0.11824434995651245,-0.0511326938867569,-0.5494692921638489,0.33997663855552673,9.101557731628418
1689018015584528053,-0.2045307755470276,-0.13848437368869781,-0.10120011866092682,-0.6607996821403503,0.31603461503982544,8.945934295654297
1689018015594528053,-0.22477079927921295,-0.14487595856189728,-0.12783172726631165,-0.7422025203704834,0.34835633635520935,8.768763542175293
1689018015603528053,-0.222640261054039,-0.1438107043504715,-0.11185276508331299,-0.5650315880775452,0.507570743560791,8.482656478881836
1689018015613528053,-0.19813919067382812,-0.14274543523788452,-0.04367584362626076,-0.1280897855758667,0.606930136680603,8.134300231933594
1689018015622528053,-0.15020228922367096,-0.15020228922367096,0.06285060197114944,0.25258827209472656,0.7625532150268555,7.8745293617248535
1689018015632528053,-0.09161274135112762,-0.1576591432094574,0.19281286001205444,0.48602294921875,0.5446808934211731,7.970297336578369
1689018015641528053,-0.05006742849946022,-0.15978966653347015,0.3419498801231384,0.5099649429321289,0.015562310814857483,8.239645004272461
1689018015651528053,-0.02556634694337845,-0.1533980816602707,0.47084689140319824,0.19393032789230347,-0.21308395266532898,8.453926086425781
1689018015660528053,-0.006391586735844612,-0.13209278881549835,0.5603290796279907,-0.33518823981285095,-0.22505494952201843,8.708908081054688
1689018015670528053,0.004261057823896408,-0.09374327212572098,0.6040049195289612,-0.8439561128616333,-0.1735796183347702,8.972270965576172
1689018015680528053,0.00532632227987051,-0.04261057823896408,0.6146575808525085,-1.0977414846420288,-0.12928688526153564,9.253589630126953
1689018015689528053,-0.003195793367922306,0.013848437927663326,0.6103965044021606,-0.8858546018600464,0.26575639843940735,9.356539726257324
1689018015699528053,0.009587380103766918,0.055393751710653305,0.605070173740387,-0.24420857429504395,1.0773907899856567,9.205705642700195
1689018015708528053,0.044741105288267136,0.07243797928094864,0.567785918712616,0.29448679089546204,1.6280571222305298,9.100360870361328
1689018015718528053,0.08415588736534119,0.07776430249214172,0.5081311464309692,0.3471592366695404,1.7322049140930176,9.216479301452637
1689018015728528053,0.11291802674531937,0.08948221057653427,0.4399542212486267,0.08858545869588852,1.6927006244659424,9.41759204864502
1689018015737528053,0.13209278881549835,0.1065264418721199,0.3653857111930847,-0.23104046285152435,1.6591817140579224,9.586383819580078
1689018015747528053,0.14594122767448425,0.13102751970291138,0.28975191712379456,-0.5099649429321289,1.6783353090286255,9.671377182006836
1689018015756528053,0.15872439742088318,0.15978966653347015,0.21944446861743927,-0.7086836695671082,1.7848773002624512,9.680953979492188
1689018015766528053,0.17896442115306854,0.18748654425144196,0.1576591432094574,-0.7864952683448792,1.8962076902389526,9.674968719482422
1689018015776528053,0.20133498311042786,0.20985709130764008,0.11824434995651245,-0.7433996200561523,1.9009960889816284,9.712079048156738
1689018015785528053,0.22370553016662598,0.22477079927921295,0.09587380290031433,-0.6368576288223267,1.8183962106704712,9.804255485534668
1689018015794528053,0.23968449234962463,0.2322276532649994,0.09374327212572098,-0.48602294921875,1.6148890256881714,9.947907447814941
1689018015804528053,0.24714134633541107,0.22903186082839966,0.10759171098470688,-0.3148375153541565,1.3742717504501343,10.109516143798828
1689018015814528053,0.24927188456058502,0.2173139452934265,0.1161138266324997,-0.14484919607639313,1.422155737876892,10.27591323852539
1689018015823528053,0.2599245309829712,0.1949433982372284,0.11291802674531937,0.026336219161748886,1.7525556087493896,10.417171478271484
1689018015833528053,0.2790992856025696,0.16511598229408264,0.1022653877735138,0.16759411990642548,1.988384485244751,10.532093048095703
1689018015843528053,0.29827404022216797,0.1299622654914856,0.07776430249214172,0.20111294090747833,1.9776105880737305,10.712855339050293
1689018015852528053,0.30786141753196716,0.09800432622432709,0.049002163112163544,0.10654197633266449,1.7788918018341064,10.976217269897461
1689018015862528053,0.3004045784473419,0.07137271761894226,0.03302319720387459,-0.05267243832349777,1.4413094520568848,11.255142211914062
1689018015872528053,0.27696874737739563,0.05432848632335663,0.023435818031430244,-0.24061726033687592,1.1121066808700562,11.477803230285645
1689018015881528053,0.2460760921239853,0.044741105288267136,0.006391586735844612,-0.3543418347835541,0.9636661410331726,11.626243591308594
1689018015891528053,0.21518342196941376,0.03834952041506767,-0.02130528911948204,-0.3543418347835541,1.0007762908935547,11.66694450378418
1689018015901528053,0.19707392156124115,0.02876213937997818,-0.0511326938867569,-0.31842881441116333,1.2964601516723633,11.613075256347656
1689018015910528053,0.19600865244865417,0.015978965908288956,-0.0511326938867569,-0.22625206410884857,1.7369933128356934,11.534066200256348
1689018015919528053,0.2087918221950531,-0.001065264455974102,-0.037284255027770996,-0.09576806426048279,1.9488801956176758,11.390414237976074
1689018015929528053,0.21944446861743927,-0.015978965908288956,-0.015978965908288956,-0.035913024097681046,1.7561469078063965,11.277887344360352
1689018015938528053,0.2130528837442398,-0.024501081556081772,-0.017044231295585632,-0.03950432687997818,1.315613865852356,11.3269681930542
1689018015948528053,0.1896170675754547,-0.027696875855326653,-0.04367584362626076,0.05267243832349777,1.0630255937576294,11.382034301757812
1689018015958528053,0.16085493564605713,-0.03195793181657791,-0.07776430249214172,0.22625206410884857,1.1264718770980835,11.287464141845703
1689018015967528053,0.13528858125209808,-0.034088462591171265,-0.12357067316770554,0.2693476974964142,1.1312602758407593,11.107898712158203
1689018015977528053,0.10546118021011353,-0.030892668291926384,-0.17044231295585632,0.14365209639072418,0.9349357485771179,10.989385604858398
1689018015986528053,0.07030745595693588,-0.02130528911948204,-0.1992044448852539,-0.038307227194309235,0.8212111592292786,10.9091796875
1689018015996528053,0.037284255027770996,-0.008522115647792816,-0.21518342196941376,-0.15083470940589905,0.8990226984024048,10.678139686584473
1689018016006528053,0.01065264455974102,0.008522115647792816,-0.23755396902561188,-0.09576806426048279,1.0654197931289673,10.2962646484375
1689018016015528053,-0.007456851191818714,0.026631610468029976,-0.258859246969223,0.07422025501728058,1.3227964639663696,9.906009674072266
1689018016025528053,-0.014913702383637428,0.03941478580236435,-0.27483823895454407,0.21787235140800476,1.5729905366897583,9.57321548461914
1689018016035528053,-0.013848437927663326,0.05006742849946022,-0.2865561246871948,0.28371289372444153,1.6723498106002808,9.32541561126709
1689018016044528053,-0.014913702383637428,0.06285060197114944,-0.28975191712379456,0.31842881441116333,1.6891093254089355,9.199719429016113
1689018016053528053,-0.017044231295585632,0.07669904083013535,-0.2929477095603943,0.264559268951416,1.5047557353973389,9.130288124084473
1689018016063528053,-0.03302319720387459,0.09800432622432709,-0.28975191712379456,0.05027823522686958,1.071405291557312,9.051279067993164
1689018016072528053,-0.06072007119655609,0.12889699637889862,-0.25779399275779724,-0.14365209639072418,0.6572083830833435,8.939949035644531
1689018016082528053,-0.092678003013134,0.1619201898574829,-0.18429075181484222,-0.2238578498363495,0.3519476354122162,8.78432559967041
1689018016092528053,-0.12463594228029251,0.19281286001205444,-0.09693906456232071,-0.19632454216480255,0.14844051003456116,8.644265174865723
1689018016101528053,-0.15446333587169647,0.2183792144060135,-0.02130528911948204,-0.05027823522686958,0.08978256583213806,8.49941635131836
1689018016111528053,-0.17789916694164276,0.23329290747642517,0.027696875855326653,0.17477671802043915,0.15442600846290588,8.350975036621094
1689018016120528053,-0.19387812912464142,0.23542344570159912,0.026631610468029976,0.43335050344467163,0.18076223134994507,8.236053466796875
1689018016130528053,-0.20772656798362732,0.222640261054039,-0.027696875855326653,0.6057330369949341,0.19871874153614044,8.178592681884766
1689018016140528053,-0.22050973773002625,0.2034655064344406,-0.1065264418721199,0.48602294921875,0.19632454216480255,8.111555099487305
1689018016150528053,-0.23968449234962463,0.1896170675754547,-0.17363810539245605,0.06224924325942993,0.0694318488240242,7.975085735321045
1689018016159528053,-0.2641855776309967,0.18642127513885498,-0.2034655064344406,-0.42377370595932007,-0.0011971008498221636,7.838616371154785
1689018016169528053,-0.287621408700943,0.19174760580062866,-0.18748654425144196,-0.727837324142456,0.02274491637945175,7.738059997558594
1689018016178528053,-0.3067961633205414,0.19707392156124115,-0.15126754343509674,-0.8224082589149475,0.0,7.672219276428223
1689018016188528053,-0.32170987129211426,0.1992044448852539,-0.11185276508331299,-0.7374141216278076,0.09935937076807022,7.665036678314209
1689018016197528053,-0.3238403797149658,0.18855179846286774,-0.08096009492874146,-0.5542576909065247,0.4189852774143219,7.726088523864746
1689018016207528053,-0.31318774819374084,0.17257283627986908,-0.06604639440774918,-0.5243301391601562,0.7481880187988281,7.775169849395752
1689018016217528053,-0.28975191712379456,0.1533980816602707,-0.0511326938867569,-0.6775590777397156,1.0055646896362305,7.837419033050537
1689018016226528053,-0.260989785194397,0.13741911947727203,-0.03515372797846794,-0.8990226984024048,1.1731587648391724,7.926004409790039
1689018016235528053,-0.23009711503982544,0.12676647305488586,-0.024501081556081772,-1.039083480834961,1.2090718746185303,8.055291175842285
1689018016245528053,-0.20026971399784088,0.11717908829450607,-0.015978965908288956,-1.0115501880645752,1.2342109680175781,8.201337814331055
1689018016255528053,-0.1715075671672821,0.10972223430871964,-0.006391586735844612,-0.9445125460624695,1.316810965538025,8.300697326660156
1689018016264528053,-0.14700649678707123,0.10759171098470688,-0.004261057823896408,-0.9313444495201111,1.3491326570510864,8.434772491455078
1689018016274528053,-0.12676647305488586,0.10865697264671326,-0.006391586735844612,-0.9588777422904968,1.2880804538726807,8.617928504943848
1689018016283528053,-0.11824434995651245,0.11291802674531937,-0.015978965908288956,-0.9684545993804932,1.1623848676681519,8.84178638458252
1689018016293528053,-0.1161138266324997,0.1161138266324997,-0.024501081556081772,-0.9002197980880737,1.071405291557312,9.071630477905273
1689018016303528053,-0.11824434995651245,0.11398329585790634,-0.027696875855326653,-0.812831461429596,1.015141487121582,9.283516883850098
1689018016312528053,-0.12250541150569916,0.10546118021011353,-0.023435818031430244,-0.7541735172271729,0.9828197956085205,9.44991397857666
1689018016322528053,-0.12463594228029251,0.09693906456232071,-0.017044231295585632,-0.730231523513794,1.0043675899505615,9.564835548400879
1689018016331528053,-0.12357067316770554,0.08096009492874146,-0.011717909015715122,-0.6979097723960876,1.0570399761199951,9.773131370544434
1689018016341528053,-0.11717908829450607,0.06817692518234253,-0.009587380103766918,-0.6117185354232788,1.1887211799621582,9.93474006652832
1689018016351528053,-0.10333064943552017,0.05432848632335663,-0.011717909015715122,-0.5446808934211731,1.358709454536438,9.932345390319824
1689018016360528053,-0.08309062570333481,0.041545312851667404,-0.015978965908288956,-0.5231330394744873,1.459265947341919,9.97184944152832
1689018016370528053,-0.06178533658385277,0.029827404767274857,-0.019174760207533836,-0.5303156971931458,1.4736311435699463,10.008959770202637
1689018016379528053,-0.041545312851667404,0.024501081556081772,-0.024501081556081772,-0.590170681476593,1.3754688501358032,10.040084838867188
1689018016389528053,-0.027696875855326653,0.022370552644133568,-0.029827404767274857,-0.6835445761680603,1.2186486721038818,10.123881340026855
1689018016399528053,-0.017044231295585632,0.024501081556081772,-0.02876213937997818,-0.7170634269714355,1.1528080701828003,10.201693534851074
1689018016408528053,-0.003195793367922306,0.02876213937997818,-0.024501081556081772,-0.6655880808830261,1.2246341705322266,10.26274585723877
1689018016418528053,0.02130528911948204,0.029827404767274857,-0.022370552644133568,-0.6560112833976746,1.403002142906189,10.29746150970459
1689018016427528053,0.05432848632335663,0.030892668291926384,-0.020240023732185364,-0.712274968624115,1.5430629253387451,10.345345497131348
1689018016437528053,0.08522115647792816,0.03302319720387459,-0.014913702383637428,-0.7637503147125244,1.459265947341919,10.407594680786133
1689018016447528053,0.1065264418721199,0.03515372797846794,-0.014913702383637428,-0.7398083209991455,1.182735562324524,10.517727851867676
1689018016456528053,0.11078750342130661,0.034088462591171265,-0.01810949482023716,-0.606930136680603,0.8008604645729065,10.703278541564941
1689018016466528053,0.09693906456232071,0.023435818031430244,-0.029827404767274857,-0.424970805644989,0.44412440061569214,10.915164947509766
1689018016475528053,0.07669904083013535,0.003195793367922306,-0.041545312851667404,-0.2454056739807129,0.2932896912097931,11.083956718444824
1689018016485528053,0.06072007119655609,-0.02556634694337845,-0.06391586363315582,-0.08499415963888168,0.37828385829925537,11.207258224487305
1689018016494528053,0.06072007119655609,-0.06072007119655609,-0.09054747968912125,0.0586579404771328,0.6572083830833435,11.292252540588379
1689018016504528053,0.07563377171754837,-0.09800432622432709,-0.10013485699892044,0.04668693244457245,0.9433154463768005,11.288661003112793
1689018016513528053,0.09800432622432709,-0.1257012039422989,-0.08202536404132843,-0.1951274424791336,1.0283095836639404,11.244368553161621
1689018016524528053,0.1161138266324997,-0.1395496428012848,-0.04580637067556381,-0.46088382601737976,0.8738836050033569,11.253945350646973
1689018016532528053,0.11824434995651245,-0.1438107043504715,-0.006391586735844612,-0.7062894701957703,0.7146691679954529,11.307814598083496
1689018016542528053,0.10972223430871964,-0.13741911947727203,0.03834952041506767,-0.93254154920578,0.5997475385665894,11.399991035461426
1689018016552528053,0.08735168725252151,-0.12676647305488586,0.07456851005554199,-1.0785878896713257,0.3280056416988373,11.492168426513672
1689018016561528053,0.0511326938867569,-0.11185276508331299,0.09693906456232071,-1.1432312726974487,0.1149216815829277,11.550826072692871
1689018016571528053,0.013848437927663326,-0.09906959533691406,0.09587380290031433,-1.114500880241394,0.16519992053508759,11.57596492767334
1689018016581528053,-0.013848437927663326,-0.09480853378772736,0.07456851005554199,-1.0630255937576294,0.38786065578460693,11.493365287780762
1689018016591528053,-0.029827404767274857,-0.09693906456232071,0.049002163112163544,-0.9852139949798584,0.6189011335372925,11.404779434204102
1689018016600528053,-0.03195793181657791,-0.11185276508331299,0.02876213937997818,-0.8487445116043091,0.8307879567146301,11.343727111816406
1689018016609528053,-0.020240023732185364,-0.13635385036468506,0.020240023732185364,-0.7912836670875549,0.9672574996948242,11.204863548278809
1689018016619528053,-0.008522115647792816,-0.15872439742088318,0.026631610468029976,-0.9780313968658447,0.8451532125473022,11.051634788513184
1689018016629528053,-0.007456851191818714,-0.16618125140666962,0.04367584362626076,-1.2461819648742676,0.5518634915351868,10.741585731506348
1689018016638528053,-0.022370552644133568,-0.16085493564605713,0.06391586363315582,-1.3263877630233765,0.15083470940589905,10.356119155883789
1689018016648528053,-0.052197955548763275,-0.14913702011108398,0.07563377171754837,-1.2701239585876465,-0.264559268951416,10.11909294128418
1689018016657528053,-0.0884169489145279,-0.13315805792808533,0.08735168725252151,-1.2713210582733154,-0.3663128614425659,9.892841339111328
1689018016667528053,-0.11291802674531937,-0.11930961906909943,0.10865697264671326,-1.3227964639663696,-0.1951274424791336,9.733627319335938
1689018016676528053,-0.12250541150569916,-0.10972223430871964,0.1299622654914856,-1.3527239561080933,0.011971008032560349,9.59596061706543
1689018016686528053,-0.12357067316770554,-0.10120011866092682,0.14274543523788452,-1.3611036539077759,0.15442600846290588,9.433154106140137
1689018016696528053,-0.1161138266324997,-0.09693906456232071,0.14168016612529755,-1.4113818407058716,0.2693476974964142,9.309853553771973
1689018016706528053,-0.10865697264671326,-0.09054747968912125,0.14061491191387177,-1.482010841369629,0.39384618401527405,9.174580574035645
1689018016715528053,-0.10439591109752655,-0.08202536404132843,0.1395496428012848,-1.5179238319396973,0.4405331015586853,9.057265281677246
1689018016724528053,-0.10546118021011353,-0.07137271761894226,0.1395496428012848,-1.502361536026001,0.4082113802433014,9.004592895507812
1689018016734528053,-0.11504855751991272,-0.058589544147253036,0.14274543523788452,-1.3239935636520386,0.2561795711517334,8.954314231872559
1689018016744528053,-0.1342233121395111,-0.049002163112163544,0.14487595856189728,-1.01753568649292,0.07422025501728058,8.890868186950684
1689018016753528053,-0.1576591432094574,-0.04687163606286049,0.14487595856189728,-0.6392518281936646,0.028730420395731926,8.822632789611816
1689018016762528053,-0.17470337450504303,-0.058589544147253036,0.14274543523788452,-0.27054479718208313,0.08379705995321274,8.696937561035156
1689018016773528053,-0.185356006026268,-0.07776430249214172,0.14700649678707123,-0.035913024097681046,0.1364694982767105,8.53413200378418
1689018016782528053,-0.1906823366880417,-0.1022653877735138,0.1438107043504715,0.104147769510746,0.16759411990642548,8.371326446533203
1689018016792528053,-0.1906823366880417,-0.12889699637889862,0.1342233121395111,0.1999158412218094,0.24420857429504395,8.254010200500488
1689018016801528053,-0.1896170675754547,-0.1576591432094574,0.1203748807311058,0.25258827209472656,0.355538934469223,8.154650688171387
1689018016811528053,-0.18429075181484222,-0.18855179846286774,0.10546118021011353,0.26575639843940735,0.5231330394744873,8.066065788269043
1689018016820528053,-0.1768338978290558,-0.21624867618083954,0.09800432622432709,0.1843535304069519,0.6775590777397156,8.002618789672852
1689018016830528053,-0.1672465205192566,-0.23861923813819885,0.092678003013134,0.07422025501728058,0.7026981711387634,8.018181800842285
1689018016840528053,-0.1619201898574829,-0.2556634545326233,0.07776430249214172,-0.0011971008498221636,0.7625532150268555,8.123526573181152
1689018016849528053,-0.15233281254768372,-0.2695119082927704,0.06817692518234253,-0.19153612852096558,0.9852139949798584,8.23006820678711
1689018016858528053,-0.1342233121395111,-0.2727077007293701,0.07350324839353561,-0.42856210470199585,1.2066776752471924,8.299500465393066
1689018016868528053,-0.11291802674531937,-0.26738137006759644,0.08202536404132843,-0.5374982953071594,1.3287819623947144,8.374917030334473
1689018016878528053,-0.09161274135112762,-0.25779399275779724,0.09480853378772736,-0.5925649404525757,1.4065934419631958,8.455122947692871
1689018016887528053,-0.06817692518234253,-0.2460760921239853,0.10120011866092682,-0.6153098344802856,1.5131354331970215,8.530540466308594
1689018016898528053,-0.044741105288267136,-0.23435817658901215,0.10865697264671326,-0.5327098965644836,1.624465823173523,8.667010307312012
1689018016906528053,-0.020240023732185364,-0.22903186082839966,0.11078750342130661,-0.3758896589279175,1.6484078168869019,8.883685111999512
1689018016916528053,0.003195793367922306,-0.23329290747642517,0.09906959533691406,-0.22864626348018646,1.6160861253738403,9.096769332885742
1689018016926528053,0.02556634694337845,-0.24394555389881134,0.0884169489145279,-0.19393032789230347,1.5658079385757446,9.282320022583008
1689018016935528053,0.047936901450157166,-0.25246766209602356,0.07456851005554199,-0.2932896912097931,1.545457124710083,9.466672897338867
1689018016945528053,0.07030745595693588,-0.25672873854637146,0.058589544147253036,-0.4429273009300232,1.5658079385757446,9.658209800720215
1689018016955528053,0.09480853378772736,-0.2556634545326233,0.03941478580236435,-0.569819986820221,1.6412252187728882,9.850942611694336
1689018016964528053,0.12357067316770554,-0.24927188456058502,0.024501081556081772,-0.6572083830833435,1.7633295059204102,9.982624053955078
1689018016973528053,0.1533980816602707,-0.23755396902561188,0.015978965908288956,-0.6847416758537292,1.8004395961761475,10.08557415008545
1689018016983528053,0.1810949593782425,-0.22157500684261322,0.007456851191818714,-0.652419924736023,1.7788918018341064,10.219649314880371
1689018016993528053,0.20240023732185364,-0.20133498311042786,0.002130528911948204,-0.5877764821052551,1.7633295059204102,10.351330757141113
1689018017002528053,0.21624867618083954,-0.17789916694164276,-0.003195793367922306,-0.4572925269603729,1.725022315979004,10.471040725708008
1689018017012528053,0.22796659171581268,-0.1576591432094574,-0.011717909015715122,-0.25498247146606445,1.6376339197158813,10.627861022949219
1689018017021528053,0.22903186082839966,-0.14168016612529755,-0.02556634694337845,-0.08978256583213806,1.4616601467132568,10.821791648864746
1689018017031528053,0.22050973773002625,-0.13102751970291138,-0.0511326938867569,-0.02992752008140087,1.2557587623596191,11.040861129760742
1689018017041528053,0.20666129887104034,-0.11930961906909943,-0.07776430249214172,-0.005985504016280174,1.037886381149292,11.24795913696289
1689018017050528053,0.185356006026268,-0.11185276508331299,-0.10120011866092682,0.028730420395731926,0.772130012512207,11.45146656036377
1689018017060528053,0.1619201898574829,-0.10546118021011353,-0.11504855751991272,0.020350713282823563,0.5626373887062073,11.640608787536621
1689018017069528053,0.1395496428012848,-0.09800432622432709,-0.11078750342130661,-0.08140285313129425,0.5482721924781799,11.748347282409668
1689018017080528053,0.12463594228029251,-0.08628641813993454,-0.07243797928094864,-0.19393032789230347,0.8355763554573059,11.79144287109375
1689018017088528053,0.1203748807311058,-0.07137271761894226,-0.00532632227987051,-0.09696516394615173,1.1563993692398071,11.818976402282715
1689018017098528053,0.1203748807311058,-0.06285060197114944,0.052197955548763275,0.25258827209472656,1.1073182821273804,11.869255065917969
1689018017108528053,0.10759171098470688,-0.06604639440774918,0.06817692518234253,0.6224924325942993,0.7026981711387634,11.951854705810547
1689018017117528053,0.07776430249214172,-0.07776430249214172,0.049002163112163544,0.8583213090896606,0.2322375625371933,12.076353073120117
1689018017127528053,0.03195793181657791,-0.092678003013134,0.01065264455974102,0.9816226959228516,-0.152031809091568,12.139799118041992
1689018017137528053,-0.024501081556081772,-0.1065264418721199,-0.03621898964047432,1.058237075805664,-0.48602294921875,12.054805755615234
1689018017146528053,-0.08735168725252151,-0.11504855751991272,-0.08522115647792816,1.0414776802062988,-0.7685387134552002,11.860875129699707
1689018017156528053,-0.14913702011108398,-0.11504855751991272,-0.12144014239311218,0.8846575021743774,-0.9241618514060974,11.601103782653809
1689018017165528053,-0.2034655064344406,-0.10120011866092682,-0.13315805792808533,0.6775590777397156,-0.8810662031173706,11.274295806884766
1689018017175528053,-0.24181503057479858,-0.0788295716047287,-0.11398329585790634,0.5363011956214905,-0.6404489278793335,10.890026092529297
1689018017184528053,-0.26205503940582275,-0.047936901450157166,-0.07350324839353561,0.47644612193107605,-0.25977087020874023,10.483012199401855
1689018017194528053,-0.2599245309829712,-0.012783173471689224,-0.02130528911948204,0.4225766062736511,0.14724339544773102,10.110713958740234
1689018017204528053,-0.24288028478622437,0.02556634694337845,0.03302319720387459,0.36750996112823486,0.47165772318840027,9.86770248413086
1689018017213528053,-0.2173139452934265,0.06178533658385277,0.08415588736534119,0.3974374830722809,0.6727706789970398,9.75637149810791
1689018017223528053,-0.19174760580062866,0.092678003013134,0.11717908829450607,0.5530605912208557,0.7170634269714355,9.720458984375
1689018017232528053,-0.17044231295585632,0.11185276508331299,0.12144014239311218,0.7362170219421387,0.606930136680603,9.682151794433594
1689018017242528053,-0.15446333587169647,0.1203748807311058,0.09693906456232071,0.9313444495201111,0.4620809257030487,9.623493194580078
1689018017251528053,-0.14594122767448425,0.11717908829450607,0.04687163606286049,1.1528080701828003,0.365115761756897,9.583989143371582
1689018017261528053,-0.1395496428012848,0.10439591109752655,-0.020240023732185364,1.258152961730957,0.30286651849746704,9.471461296081543
1689018017271528053,-0.13315805792808533,0.0884169489145279,-0.08628641813993454,1.2234370708465576,0.23343466222286224,9.273940086364746
1689018017280528053,-0.12889699637889862,0.07137271761894226,-0.14061491191387177,1.1959037780761719,0.1759738177061081,9.094374656677246
1689018017290528053,-0.12889699637889862,0.052197955548763275,-0.18322548270225525,1.194706678390503,0.11971008032560349,8.923189163208008
1689018017300528053,-0.13209278881549835,0.03195793181657791,-0.20985709130764008,1.1276689767837524,0.06703764945268631,8.71609115600586
1689018017309528053,-0.13741911947727203,0.013848437927663326,-0.222640261054039,0.9720458984375,0.02992752008140087,8.523358345031738
1689018017319528053,-0.1438107043504715,-0.001065264455974102,-0.22796659171581268,0.7948749661445618,-0.0071826050989329815,8.40963363647461
1689018017329528053,-0.1533980816602707,-0.012783173471689224,-0.2173139452934265,0.6129156351089478,-0.05506663769483566,8.346186637878418
1689018017338528053,-0.16405072808265686,-0.019174760207533836,-0.20240023732185364,0.45250412821769714,-0.09935937076807022,8.329427719116211
1689018017347528053,-0.17044231295585632,-0.022370552644133568,-0.1906823366880417,0.3196259140968323,-0.08738835901021957,8.333019256591797
1689018017357528053,-0.16937704384326935,-0.022370552644133568,-0.17470337450504303,0.18555063009262085,-0.015562310814857483,8.24084186553955
1689018017366528053,-0.15659387409687042,-0.01810949482023716,-0.15233281254768372,0.1304839849472046,0.12928688526153564,8.135497093200684
1689018017376528053,-0.1299622654914856,-0.011717909015715122,-0.13315805792808533,0.09816227108240128,0.3998316824436188,7.999027729034424
1689018017386528053,-0.09161274135112762,0.0,-0.11930961906909943,0.12449848651885986,0.6356605291366577,7.85657262802124
1689018017396528053,-0.044741105288267136,0.008522115647792816,-0.1022653877735138,0.2346317619085312,0.8164227604866028,7.772775650024414
1689018017405528053,0.01065264455974102,0.011717909015715122,-0.08735168725252151,0.3124433159828186,1.0235211849212646,7.714117527008057
1689018017414528053,0.06817692518234253,0.011717909015715122,-0.07243797928094864,0.3519476354122162,1.1037269830703735,7.770381450653076
1689018017424528053,0.12250541150569916,0.01065264455974102,-0.058589544147253036,0.30526071786880493,1.07379949092865,7.90086555480957
1689018017434528053,0.16937704384326935,0.011717909015715122,-0.049002163112163544,0.2322375625371933,1.0474631786346436,8.042123794555664
1689018017443528053,0.2130528837442398,0.013848437927663326,-0.03941478580236435,0.18555063009262085,1.0618284940719604,8.148665428161621
1689018017453528053,0.2556634545326233,0.020240023732185364,-0.03302319720387459,0.16759411990642548,1.1228805780410767,8.250418663024902
1689018017462528053,0.29507824778556824,0.02556634694337845,-0.03621898964047432,0.20709843933582306,1.2330138683319092,8.370128631591797
1689018017472528053,0.3291667103767395,0.024501081556081772,-0.05432848632335663,0.26575639843940735,1.2533645629882812,8.544905662536621
1689018017482528053,0.3515372574329376,0.017044231295585632,-0.08522115647792816,0.29209259152412415,1.1623848676681519,8.740033149719238
1689018017491528053,0.35899412631988525,0.00532632227987051,-0.11824434995651245,0.304063618183136,1.0570399761199951,9.005789756774902
1689018017501528053,0.3536677956581116,-0.011717909015715122,-0.14168016612529755,0.33039984107017517,0.9193734526634216,9.232041358947754
1689018017511528053,0.3376888334751129,-0.03195793181657791,-0.15020228922367096,0.3387795388698578,0.7852981686592102,9.308655738830566
1689018017520528053,0.3153182864189148,-0.04687163606286049,-0.148071750998497,0.31364041566848755,0.6943184733390808,9.334992408752441
1689018017529528053,0.2886866629123688,-0.058589544147253036,-0.13741911947727203,0.26575639843940735,0.6655880808830261,9.338583946228027
1689018017539528053,0.260989785194397,-0.06285060197114944,-0.11185276508331299,0.21188685297966003,0.6919242739677429,9.391256332397461
1689018017549528053,0.23116238415241241,-0.06178533658385277,-0.08202536404132843,0.1604115068912506,0.7386112213134766,9.514557838439941
1689018017558528053,0.1992044448852539,-0.05965480953454971,-0.04687163606286049,0.11252747476100922,0.7852981686592102,9.707290649414062
1689018017568528053,0.16405072808265686,-0.05645901337265968,-0.01065264455974102,0.14006079733371735,0.8008604645729065,9.884461402893066
1689018017578528053,0.1257012039422989,-0.055393751710653305,0.023435818031430244,0.27413609623908997,0.8056488633155823,10.079588890075684
1689018017587528053,0.0884169489145279,-0.05432848632335663,0.05752427875995636,0.4010287821292877,0.7745242118835449,10.293869972229004
1689018017596528053,0.05006742849946022,-0.052197955548763275,0.08415588736534119,0.44651859998703003,0.6536170244216919,10.500968933105469
1689018017606528053,0.008522115647792816,-0.04580637067556381,0.1022653877735138,0.46088382601737976,0.5063736438751221,10.767922401428223
1689018017616528053,-0.034088462591171265,-0.03941478580236435,0.10546118021011353,0.45848962664604187,0.4572925269603729,11.018115997314453
1689018017625528053,-0.07137271761894226,-0.02876213937997818,0.10333064943552017,0.3543418347835541,0.5434837937355042,11.183316230773926
1689018017635528053,-0.092678003013134,-0.009587380103766918,0.10972223430871964,0.14365209639072418,0.8319850564002991,11.27070426940918
1689018017645528053,-0.09374327212572098,0.015978965908288956,0.14594122767448425,-0.010773907415568829,1.2653355598449707,11.289857864379883
1689018017654528053,-0.07776430249214172,0.041545312851667404,0.18855179846286774,0.019153613597154617,1.5370774269104004,11.33893871307373
1689018017664528053,-0.055393751710653305,0.05645901337265968,0.20559602975845337,0.22266075015068054,1.4832079410552979,11.51850414276123
1689018017673528053,-0.041545312851667404,0.055393751710653305,0.17896442115306854,0.46567222476005554,1.137245774269104,11.842918395996094
1689018017683528053,-0.04580637067556381,0.03941478580236435,0.11717908829450607,0.5494692921638489,0.6153098344802856,12.179304122924805
1689018017692528053,-0.06817692518234253,0.017044231295585632,0.044741105288267136,0.40701428055763245,0.06224924325942993,12.361263275146484
1689018017702528053,-0.10546118021011353,-0.00532632227987051,-0.019174760207533836,0.11851298063993454,-0.3100491166114807,12.344503402709961
1689018017712528053,-0.14168016612529755,-0.019174760207533836,-0.06072007119655609,-0.23104046285152435,-0.4034229815006256,12.176909446716309
1689018017721528053,-0.1715075671672821,-0.020240023732185364,-0.07456851005554199,-0.5638344883918762,-0.2968810200691223,11.909955978393555
1689018017731528053,-0.18855179846286774,-0.009587380103766918,-0.05965480953454971,-0.790086567401886,-0.08858545869588852,11.57716178894043
1689018017740528053,-0.1906823366880417,0.01065264455974102,-0.020240023732185364,-0.9133879542350769,0.15322890877723694,11.227608680725098
1689018017750528053,-0.18322548270225525,0.03834952041506767,0.029827404767274857,-0.9217676520347595,0.38546645641326904,10.945093154907227
1689018017760528053,-0.16511598229408264,0.0649811327457428,0.08202536404132843,-0.8415618538856506,0.5111620426177979,10.765527725219727
1689018017769528053,-0.14274543523788452,0.08628641813993454,0.12676647305488586,-0.8152256608009338,0.5542576909065247,10.631452560424805
1689018017779528053,-0.12357067316770554,0.10546118021011353,0.15872439742088318,-0.8774749040603638,0.5327098965644836,10.508151054382324
1689018017788528053,-0.10759171098470688,0.1257012039422989,0.1715075671672821,-0.973242998123169,0.4668693244457245,10.414776802062988
1689018017798528053,-0.09587380290031433,0.14274543523788452,0.1672465205192566,-1.0103530883789062,0.4991910457611084,10.339360237121582
1689018017807528053,-0.08309062570333481,0.15552860498428345,0.1533980816602707,-0.9684545993804932,0.5638344883918762,10.257957458496094
1689018017817528053,-0.07350324839353561,0.1619201898574829,0.12889699637889862,-0.9205705523490906,0.5841851830482483,10.15261173248291
1689018017827528053,-0.06711165606975555,0.16298545897006989,0.09587380290031433,-0.8571242094039917,0.5494692921638489,10.019734382629395
1689018017836528053,-0.06391586363315582,0.15872439742088318,0.0511326938867569,-0.7661445140838623,0.5386953949928284,9.832985877990723
1689018017846528053,-0.06285060197114944,0.15020228922367096,-0.002130528911948204,-0.6979097723960876,0.5410895943641663,9.634267807006836
1689018017857035097,-0.06178533658385277,0.14061491191387177,-0.06178533658385277,-0.6548141837120056,0.47884032130241394,9.443928718566895
1689018017866035097,-0.06711165606975555,0.13741911947727203,-0.12357067316770554,-0.6536170244216919,0.3579331338405609,9.247604370117188
1689018017876035097,-0.08202536404132843,0.14061491191387177,-0.17896442115306854,-0.6739677786827087,0.20111294090747833,9.075221061706543
1689018017885035097,-0.10120011866092682,0.15126754343509674,-0.21944446861743927,-0.6560112833976746,0.02753331884741783,8.876502990722656
1689018017895035097,-0.12676647305488586,0.16511598229408264,-0.24501082301139832,-0.5961562395095825,-0.18315643072128296,8.651447296142578
1689018017904035097,-0.15126754343509674,0.1768338978290558,-0.2460760921239853,-0.49559974670410156,-0.34835633635520935,8.426392555236816
1689018017914035097,-0.17470337450504303,0.18748654425144196,-0.23009711503982544,-0.39863458275794983,-0.4141968786716461,8.20851993560791
1689018017924035097,-0.19174760580062866,0.19387812912464142,-0.2034655064344406,-0.3315969407558441,-0.3794809579849243,7.997830867767334
1689018017933035097,-0.20026971399784088,0.1992044448852539,-0.16937704384326935,-0.3076549172401428,-0.26336216926574707,7.81108283996582
1689018017943035097,-0.1992044448852539,0.2045307755470276,-0.1299622654914856,-0.30526071786880493,-0.11971008032560349,7.684190273284912
1689018017952035097,-0.1896170675754547,0.2087918221950531,-0.0884169489145279,-0.29448679089546204,0.03711012750864029,7.601590156555176
1689018017962035097,-0.17363810539245605,0.2130528837442398,-0.04687163606286049,-0.28969839215278625,0.19393032789230347,7.542932510375977
1689018017972035097,-0.15233281254768372,0.2173139452934265,-0.002130528911948204,-0.34356793761253357,0.30286651849746704,7.51659631729126
1689018017981035097,-0.1299622654914856,0.2183792144060135,0.044741105288267136,-0.4513069987297058,0.35314473509788513,7.552509307861328
1689018017990035097,-0.10759171098470688,0.21624867618083954,0.09800432622432709,-0.5434837937355042,0.43694180250167847,7.614758491516113
1689018018001035097,-0.08309062570333481,0.20666129887104034,0.14700649678707123,-0.6392518281936646,0.629675030708313,7.661445140838623
1689018018010035097,-0.05645901337265968,0.19174760580062866,0.17896442115306854,-0.6452373266220093,0.8176198601722717,7.771578788757324
1689018018019035097,-0.030892668291926384,0.16937704384326935,0.19813919067382812,-0.4908113479614258,0.9253589510917664,7.933187007904053
1689018018029035097,-0.004261057823896408,0.13315805792808533,0.1949433982372284,-0.3603273630142212,1.0247182846069336,8.106766700744629
1689018018039035097,0.022370552644133568,0.09161274135112762,0.1768338978290558,-0.3543418347835541,1.1312602758407593,8.29471206665039
1689018018048035097,0.0511326938867569,0.05006742849946022,0.15552860498428345,-0.386663556098938,1.2497732639312744,8.452729225158691
1689018018058035097,0.08096009492874146,0.009587380103766918,0.13315805792808533,-0.38786065578460693,1.4053963422775269,8.611943244934082
1689018018068035097,0.11291802674531937,-0.026631610468029976,0.11078750342130661,-0.3758896589279175,1.5586252212524414,8.779537200927734
1689018018077035097,0.14594122767448425,-0.06285060197114944,0.08948221057653427,-0.3124433159828186,1.6196774244308472,8.942342758178711
1689018018086035097,0.17363810539245605,-0.09906959533691406,0.07456851005554199,-0.208295539021492,1.6053122282028198,9.162610054016113
1689018018096035097,0.19813919067382812,-0.13741911947727203,0.06285060197114944,-0.12090718746185303,1.5945383310317993,9.372102737426758
1689018018105035097,0.22157500684261322,-0.1757686287164688,0.044741105288267136,-0.09696516394615173,1.5909470319747925,9.557653427124023
1689018018115035097,0.2407497614622116,-0.21092236042022705,0.009587380103766918,-0.152031809091568,1.525106430053711,9.773131370544434
1689018018124035097,0.25672873854637146,-0.24181503057479858,-0.04367584362626076,-0.18794482946395874,1.4101847410202026,9.981427192687988
1689018018135035097,0.2695119082927704,-0.27057716250419617,-0.09693906456232071,-0.19273322820663452,1.192312479019165,10.20648193359375
1689018018144035097,0.27057716250419617,-0.29401299357414246,-0.14168016612529755,-0.16759411990642548,0.7948749661445618,10.499771118164062
1689018018153035097,0.2556634545326233,-0.3142530024051666,-0.17257283627986908,-0.1364694982767105,0.2932896912097931,10.837353706359863
1689018018163035097,0.222640261054039,-0.3291667103767395,-0.18855179846286774,-0.12449848651885986,-0.21428105235099792,11.18211841583252
1689018018173035097,0.17363810539245605,-0.3387540876865387,-0.19387812912464142,-0.1280897855758667,-0.545877993106842,11.508927345275879
1689018018182035097,0.11824434995651245,-0.34514567255973816,-0.18216021358966827,-0.21667525172233582,-0.5590460896492004,11.765107154846191
1689018018192035097,0.06711165606975555,-0.3419498801231384,-0.13741911947727203,-0.3411737382411957,-0.3208230137825012,11.903970718383789
1689018018201035097,0.02556634694337845,-0.333427757024765,-0.07137271761894226,-0.243011474609375,-0.13527239859104156,11.97100830078125
1689018018211035097,-0.013848437927663326,-0.3344930410385132,-0.024501081556081772,0.21428105235099792,-0.1364694982767105,12.100295066833496
1689018018221035097,-0.05432848632335663,-0.35473304986953735,-0.013848437927663326,0.7565677165985107,-0.2238578498363495,12.315773010253906
1689018018230035097,-0.09800432622432709,-0.3888215124607086,-0.027696875855326653,1.0330979824066162,-0.4321534037590027,12.530054092407227
1689018018240035097,-0.15233281254768372,-0.41971418261528015,-0.05006742849946022,1.013944387435913,-0.7912836670875549,12.613851547241211
1689018018249035097,-0.2173139452934265,-0.436758428812027,-0.07456851005554199,0.8427590131759644,-1.180341362953186,12.533645629882812
1689018018259035097,-0.287621408700943,-0.43356263637542725,-0.09693906456232071,0.5518634915351868,-1.4173673391342163,12.300210952758789
1689018018268035097,-0.34940674901008606,-0.4069310128688812,-0.1065264418721199,0.1628057062625885,-1.4077905416488647,11.923124313354492
1689018018278035097,-0.3952130973339081,-0.3536677956581116,-0.09054747968912125,-0.1951274424791336,-1.1779471635818481,11.459846496582031
1689018018287035097,-0.41971418261528015,-0.2822950780391693,-0.049002163112163544,-0.4213795065879822,-0.8164227604866028,11.009736061096191
1689018018297035097,-0.4229099750518799,-0.19813919067382812,0.007456851191818714,-0.42616790533065796,-0.41539397835731506,10.63504409790039
1689018018307035097,-0.407996267080307,-0.1161138266324997,0.06072007119655609,-0.152031809091568,-0.07900865375995636,10.39083480834961
1689018018316035097,-0.38242992758750916,-0.049002163112163544,0.09587380290031433,0.24061726033687592,0.090979665517807,10.295066833496094
1689018018327035097,-0.3515372574329376,0.004261057823896408,0.1065264418721199,0.5494692921638489,0.14484919607639313,10.303446769714355
1689018018335035097,-0.32277512550354004,0.04687163606286049,0.07776430249214172,0.811634361743927,0.11133037507534027,10.38963794708252
1689018018345035097,-0.3004045784473419,0.07563377171754837,0.023435818031430244,1.0115501880645752,-0.03711012750864029,10.441113471984863
1689018018355035097,-0.2886866629123688,0.09906959533691406,-0.04048004746437073,1.0845733880996704,-0.27054479718208313,10.378864288330078
1689018018364035097,-0.28549087047576904,0.12144014239311218,-0.10546118021011353,1.091755986213684,-0.5015852451324463,10.230423927307129
1689018018374035097,-0.287621408700943,0.14061491191387177,-0.1672465205192566,1.058237075805664,-0.6308721303939819,10.019734382629395
1689018018384035097,-0.2918824553489685,0.15552860498428345,-0.21944446861743927,1.0235211849212646,-0.651222825050354,9.797073364257812
1689018018393035097,-0.2929477095603943,0.16405072808265686,-0.25779399275779724,1.0103530883789062,-0.6212953329086304,9.592369079589844
1689018018403035097,-0.2929477095603943,0.16405072808265686,-0.2833603322505951,1.0235211849212646,-0.5554547905921936,9.3828763961792
1689018018412035097,-0.28549087047576904,0.15872439742088318,-0.29827404022216797,1.0103530883789062,-0.4620809257030487,9.154230117797852
1689018018422035097,-0.2727077007293701,0.15126754343509674,-0.296143501996994,0.9313444495201111,-0.4129997789859772,8.93276596069336
1689018018431035097,-0.2556634545326233,0.1438107043504715,-0.27696874737739563,0.8415618538856506,-0.4129997789859772,8.741230010986328
1689018018442035097,-0.23435817658901215,0.13635385036468506,-0.24714134633541107,0.7433996200561523,-0.40940847992897034,8.589198112487793
1689018018450035097,-0.20985709130764008,0.12783172726631165,-0.2130528837442398,0.6919242739677429,-0.32202011346817017,8.487444877624512
1689018018460035097,-0.18002969026565552,0.11291802674531937,-0.17470337450504303,0.6332663297653198,-0.20470423996448517,8.423998832702637
1689018018470035097,-0.14594122767448425,0.10120011866092682,-0.14274543523788452,0.5219359397888184,-0.09935937076807022,8.416815757751465
1689018018479035097,-0.10759171098470688,0.09161274135112762,-0.11504855751991272,0.39863458275794983,0.09217676520347595,8.367734909057617
1689018018489035097,-0.06285060197114944,0.08522115647792816,-0.092678003013134,0.3076549172401428,0.2693476974964142,8.287528991699219
1689018018498035097,-0.015978965908288956,0.08309062570333481,-0.07563377171754837,0.2621650695800781,0.41539397835731506,8.239645004272461
1689018018508035097,0.03515372797846794,0.08415588736534119,-0.06285060197114944,0.1999158412218094,0.5758054852485657,8.180987358093262
1689018018518035097,0.08522115647792816,0.0884169489145279,-0.05326322093605995,0.1364694982767105,0.689530074596405,8.17141056060791
1689018018527035097,0.1342233121395111,0.09374327212572098,-0.047936901450157166,0.10654197633266449,0.7469909191131592,8.219294548034668
1689018018537035097,0.17363810539245605,0.1022653877735138,-0.04687163606286049,0.104147769510746,0.7541735172271729,8.324639320373535
1689018018546035097,0.2034655064344406,0.11185276508331299,-0.049002163112163544,0.13407529890537262,0.7230489253997803,8.482656478881836
1689018018556035097,0.22370553016662598,0.12250541150569916,-0.06178533658385277,0.19393032789230347,0.7266402244567871,8.635885238647461
1689018018566035097,0.2364886999130249,0.12889699637889862,-0.08096009492874146,0.2454056739807129,0.772130012512207,8.705317497253418
1689018018575035097,0.2407497614622116,0.1395496428012848,-0.10333064943552017,0.2621650695800781,0.7457938194274902,8.846574783325195
1689018018585035097,0.23755396902561188,0.148071750998497,-0.12357067316770554,0.272938996553421,0.6308721303939819,9.008183479309082
1689018018594035097,0.22796659171581268,0.1576591432094574,-0.1395496428012848,0.2669534981250763,0.5207388401031494,9.075221061706543
1689018018604035097,0.21411815285682678,0.16511598229408264,-0.1438107043504715,0.2346317619085312,0.4429273009300232,9.138668060302734
1689018018614035097,0.19813919067382812,0.1715075671672821,-0.13848437368869781,0.2298433631658554,0.40940847992897034,9.221267700195312
1689018018623035097,0.1810949593782425,0.17363810539245605,-0.12676647305488586,0.24181437492370605,0.40462008118629456,9.345766067504883
1689018018633035097,0.16405072808265686,0.17470337450504303,-0.10972223430871964,0.2298433631658554,0.41539397835731506,9.44871711730957
1689018018642035097,0.14913702011108398,0.17363810539245605,-0.08735168725252151,0.2106897532939911,0.49320554733276367,9.53969669342041
1689018018652035097,0.14061491191387177,0.17044231295585632,-0.06178533658385277,0.25498247146606445,0.6141127347946167,9.605537414550781
1689018018661035097,0.13848437368869781,0.1672465205192566,-0.03515372797846794,0.35314473509788513,0.7194576263427734,9.678560256958008
1689018018671035097,0.14168016612529755,0.1576591432094574,-0.008522115647792816,0.46088382601737976,0.8056488633155823,9.794678688049316
1689018018681035097,0.15020228922367096,0.1438107043504715,0.017044231295585632,0.5578489899635315,0.8966284990310669,9.929951667785645
1689018018690035097,0.16405072808265686,0.12463594228029251,0.03941478580236435,0.6320692300796509,0.933738648891449,10.105925559997559
1689018018700035097,0.17896442115306854,0.1022653877735138,0.05432848632335663,0.7170634269714355,0.8595184087753296,10.327388763427734
1689018018709035097,0.18642127513885498,0.0788295716047287,0.05965480953454971,0.7841010689735413,0.6596025824546814,10.584765434265137
1689018018719035097,0.18216021358966827,0.0511326938867569,0.055393751710653305,0.7553706169128418,0.38786065578460693,10.860098838806152
1689018018728035097,0.16937704384326935,0.026631610468029976,0.047936901450157166,0.6368576288223267,0.1867477297782898,11.0887451171875
1689018018738035097,0.15446333587169647,0.006391586735844612,0.047936901450157166,0.46567222476005554,0.19273322820663452,11.21563720703125
1689018018747035097,0.1438107043504715,-0.007456851191818714,0.0649811327457428,0.3387795388698578,0.38546645641326904,11.30422306060791
1689018018757035097,0.14274543523788452,-0.017044231295585632,0.09480853378772736,0.3064578175544739,0.547075092792511,11.379640579223633
1689018018767035097,0.1438107043504715,-0.030892668291926384,0.11291802674531937,0.3315969407558441,0.5015852451324463,11.51611042022705
1689018018777035097,0.13528858125209808,-0.05006742849946022,0.1065264418721199,0.3627215623855591,0.17238251864910126,11.802217483520508
1689018018786035097,0.1065264418721199,-0.07563377171754837,0.08096009492874146,0.3292027413845062,-0.3627215623855591,12.18528938293457
1689018018796035097,0.05432848632335663,-0.10546118021011353,0.04367584362626076,0.23582886159420013,-0.9660603404045105,12.558784484863281
1689018018805035097,-0.019174760207533836,-0.13528858125209808,-0.002130528911948204,0.05746084079146385,-1.478419542312622,12.776657104492188
1689018018815035097,-0.10120011866092682,-0.16085493564605713,-0.03621898964047432,-0.20470423996448517,-1.7621324062347412,12.758700370788574
1689018018824035097,-0.17896442115306854,-0.17470337450504303,-0.04687163606286049,-0.4537012279033661,-1.7585411071777344,12.530054092407227
1689018018834035097,-0.23968449234962463,-0.17896442115306854,-0.03515372797846794,-0.6165069341659546,-1.5263035297393799,12.167332649230957
1689018018844035097,-0.2790992856025696,-0.1757686287164688,-0.01065264455974102,-0.711077868938446,-1.2294225692749023,11.778275489807129
1689018018853035097,-0.3004045784473419,-0.1619201898574829,0.02556634694337845,-0.7924807667732239,-0.9995791912078857,11.420341491699219
1689018018863035097,-0.3025350868701935,-0.1438107043504715,0.06817692518234253,-0.894234299659729,-0.8295908570289612,11.161767959594727
1689018018872035097,-0.29507824778556824,-0.12357067316770554,0.11291802674531937,-0.9852139949798584,-0.7062894701957703,10.913968086242676
1689018018882035097,-0.28122982382774353,-0.1022653877735138,0.15126754343509674,-1.071405291557312,-0.5841851830482483,10.654197692871094
1689018018891035097,-0.260989785194397,-0.07776430249214172,0.1906823366880417,-1.1252747774124146,-0.5255272388458252,10.503362655639648
1689018018901035097,-0.24181503057479858,-0.055393751710653305,0.21944446861743927,-1.1420341730117798,-0.5422866940498352,10.350133895874023
1689018018911035097,-0.22370553016662598,-0.03302319720387459,0.23755396902561188,-1.2090718746185303,-0.41778817772865295,10.204087257385254
1689018018920035097,-0.20133498311042786,-0.009587380103766918,0.24714134633541107,-1.2114660739898682,-0.12689268589019775,10.06043529510498
1689018018930035097,-0.17470337450504303,0.007456851191818714,0.23755396902561188,-1.0534486770629883,0.14006079733371735,9.890446662902832
1689018018940035097,-0.1438107043504715,0.01810949482023716,0.21944446861743927,-0.8786720037460327,0.24899697303771973,9.75278091430664
1689018018949035097,-0.11504855751991272,0.020240023732185364,0.19707392156124115,-0.7673416137695312,0.2322375625371933,9.622296333312988
1689018018958035097,-0.09480853378772736,0.019174760207533836,0.17044231295585632,-0.6584054827690125,0.12090718746185303,9.476249694824219
1689018018968035097,-0.08415588736534119,0.011717909015715122,0.14168016612529755,-0.5279214382171631,-0.04429272934794426,9.351751327514648
1689018018978035097,-0.08202536404132843,0.0,0.11185276508331299,-0.41778817772865295,-0.21667525172233582,9.230844497680664
1689018018987035097,-0.08628641813993454,-0.012783173471689224,0.08735168725252151,-0.333991140127182,-0.3627215623855591,9.059659004211426
1689018018997035097,-0.09587380290031433,-0.02130528911948204,0.07563377171754837,-0.22505494952201843,-0.4800374209880829,8.815450668334961
1689018019006035097,-0.10546118021011353,-0.030892668291926384,0.07456851005554199,-0.1280897855758667,-0.5865793824195862,8.559270858764648
1689018019016035097,-0.11717908829450607,-0.037284255027770996,0.08415588736534119,-0.08499415963888168,-0.6272808313369751,8.316259384155273
1689018019025035097,-0.1257012039422989,-0.03621898964047432,0.10333064943552017,-0.04668693244457245,-0.5949591398239136,8.061277389526367
1689018019035035097,-0.1257012039422989,-0.03195793181657791,0.1257012039422989,-0.02274491637945175,-0.4884171485900879,7.8314337730407715
1689018019045035097,-0.11504855751991272,-0.027696875855326653,0.14913702011108398,-0.010773907415568829,-0.28730419278144836,7.605181694030762
1689018019054035097,-0.09480853378772736,-0.024501081556081772,0.1672465205192566,0.019153613597154617,-0.008379706181585789,7.4100542068481445
1689018019064035097,-0.06285060197114944,-0.02130528911948204,0.1768338978290558,0.0694318488240242,0.2968810200691223,7.269993305206299
1689018019074035097,-0.02130528911948204,-0.017044231295585632,0.1768338978290558,0.12449848651885986,0.5602431893348694,7.175422191619873
1689018019083035097,0.024501081556081772,-0.013848437927663326,0.16831177473068237,0.14604629576206207,0.7374141216278076,7.162254333496094
1689018019093035097,0.07137271761894226,-0.012783173471689224,0.15552860498428345,0.11252747476100922,0.8164227604866028,7.247248649597168
1689018019103035097,0.11078750342130661,-0.008522115647792816,0.13741911947727203,0.016759412363171577,0.8152256608009338,7.384914875030518
1689018019112035097,0.14274543523788452,-0.001065264455974102,0.12357067316770554,-0.07182604819536209,0.7781155109405518,7.560888767242432
1689018019121035097,0.16831177473068237,0.00532632227987051,0.11291802674531937,-0.06464344263076782,0.7697358131408691,7.735665798187256
1689018019131035097,0.18748654425144196,0.006391586735844612,0.10333064943552017,0.010773907415568829,0.8044517636299133,7.879317760467529
1689018019141035097,0.2045307755470276,0.0,0.08735168725252151,0.10295066982507706,0.849941611289978,8.057685852050781
1689018019150035097,0.22157500684261322,-0.013848437927663326,0.06178533658385277,0.1951274424791336,0.8894459009170532,8.292317390441895
1689018019160035097,0.23542344570159912,-0.03621898964047432,0.03195793181657791,0.25977087020874023,0.9181763529777527,8.593986511230469
1689018019170035097,0.24927188456058502,-0.06178533658385277,0.0,0.29209259152412415,0.9696516990661621,8.89685344696045
1689018019179035097,0.258859246969223,-0.09374327212572098,-0.029827404767274857,0.31124621629714966,1.0283095836639404,9.167398452758789
1689018019189035097,0.26631611585617065,-0.12676647305488586,-0.05432848632335663,0.29448679089546204,1.0247182846069336,9.436745643615723
1689018019198035097,0.26738137006759644,-0.16085493564605713,-0.07350324839353561,0.25977087020874023,0.9481038451194763,9.679757118225098
1689018019208035097,0.2599245309829712,-0.19174760580062866,-0.08628641813993454,0.21547815203666687,0.8607155084609985,9.90122127532959
1689018019218035097,0.2460760921239853,-0.2183792144060135,-0.092678003013134,0.15562310814857483,0.8415618538856506,10.096348762512207
1689018019227035097,0.23009711503982544,-0.2407497614622116,-0.09480853378772736,0.10654197633266449,0.8667010068893433,10.251971244812012
1689018019236035097,0.21411815285682678,-0.25779399275779724,-0.09587380290031433,0.11133037507534027,0.8487445116043091,10.400411605834961
1689018019246035097,0.19600865244865417,-0.27590349316596985,-0.10120011866092682,0.20231004059314728,0.8080430626869202,10.551246643066406
1689018019256035097,0.17896442115306854,-0.296143501996994,-0.10865697264671326,0.3423708379268646,0.7613561153411865,10.717643737792969
1689018019265035097,0.15872439742088318,-0.3163835406303406,-0.11824434995651245,0.4321534037590027,0.6847416758537292,10.888829231262207
1689018019275035097,0.13528858125209808,-0.3344930410385132,-0.12783172726631165,0.424970805644989,0.547075092792511,11.048043251037598
1689018019285035097,0.10759171098470688,-0.3472762107849121,-0.13848437368869781,0.3627215623855591,0.31364041566848755,11.206060409545898
1689018019294035097,0.06924218684434891,-0.3526025414466858,-0.15126754343509674,0.26575639843940735,0.08978256583213806,11.386822700500488
1689018019304035097,0.029827404767274857,-0.35047200322151184,-0.15978966653347015,0.1412578970193863,-0.015562310814857483,11.54124927520752
1689018019313035097,-0.008522115647792816,-0.3376888334751129,-0.15552860498428345,-0.0071826050989329815,0.03711012750864029,11.634622573852539
1689018019323035097,-0.03515372797846794,-0.3163835406303406,-0.13102751970291138,-0.1256955862045288,0.2777273952960968,11.695674896240234
1689018019332035097,-0.05006742849946022,-0.28975191712379456,-0.08628641813993454,-0.09457096457481384,0.5710170865058899,11.748347282409668
1689018019342035097,-0.05432848632335663,-0.2684466242790222,-0.0511326938867569,0.18315643072128296,0.6847416758537292,11.858480453491211
1689018019352035097,-0.06391586363315582,-0.25779399275779724,-0.05432848632335663,0.6500257253646851,0.5195417404174805,12.067973136901855
1689018019361035097,-0.08202536404132843,-0.258859246969223,-0.09800432622432709,1.036689281463623,0.21787235140800476,12.278663635253906
1689018019370035097,-0.10865697264671326,-0.260989785194397,-0.15978966653347015,1.1767500638961792,-0.05267243832349777,12.350489616394043
1689018019380035097,-0.1395496428012848,-0.2545982003211975,-0.2269013226032257,1.1300631761550903,-0.31124621629714966,12.231976509094238
1689018019390035097,-0.17044231295585632,-0.23755396902561188,-0.287621408700943,0.9624690413475037,-0.5722141861915588,11.976993560791016
1689018019399035097,-0.19813919067382812,-0.21092236042022705,-0.333427757024765,0.7386112213134766,-0.7086836695671082,11.524489402770996
1689018019410035097,-0.2087918221950531,-0.1715075671672821,-0.3536677956581116,0.5339069962501526,-0.5542576909065247,10.961852073669434
1689018019418035097,-0.19600865244865417,-0.12357067316770554,-0.3430151343345642,0.40701428055763245,-0.19632454216480255,10.435128211975098
1689018019428035097,-0.16085493564605713,-0.07137271761894226,-0.3025350868701935,0.3734954595565796,0.18914192914962769,9.961075782775879
1689018019438035097,-0.10759171098470688,-0.017044231295585632,-0.24714134633541107,0.4537012279033661,0.5147533416748047,9.66419506072998
1689018019447035097,-0.04687163606286049,0.03515372797846794,-0.18855179846286774,0.5841851830482483,0.6607996821403503,9.59715747833252
1689018019457035097,0.006391586735844612,0.08096009492874146,-0.1395496428012848,0.729034423828125,0.5051765441894531,9.709684371948242
1689018019467035097,0.03941478580236435,0.1161138266324997,-0.1161138266324997,0.9397241473197937,0.13287819921970367,9.88086986541748
1689018019476035097,0.0511326938867569,0.13635385036468506,-0.11717908829450607,1.180341362953186,-0.19273322820663452,9.985017776489258
1689018019486035097,0.044741105288267136,0.14274543523788452,-0.14274543523788452,1.3623007535934448,-0.3794809579849243,9.957484245300293
1689018019495035097,0.029827404767274857,0.1395496428012848,-0.18855179846286774,1.42454993724823,-0.49320554733276367,9.798270225524902
1689018019505035097,0.008522115647792816,0.13209278881549835,-0.24820661544799805,1.436521053314209,-0.590170681476593,9.558850288391113
1689018019514035097,-0.019174760207533836,0.12250541150569916,-0.30360037088394165,1.4879963397979736,-0.6655880808830261,9.320627212524414
1689018019524035097,-0.049002163112163544,0.1065264418721199,-0.3472762107849121,1.5334861278533936,-0.711077868938446,9.082404136657715
1689018019534035097,-0.08096009492874146,0.08628641813993454,-0.37390780448913574,1.5083470344543457,-0.730231523513794,8.852560997009277
1689018019543035097,-0.11291802674531937,0.06285060197114944,-0.3845604658126831,1.482010841369629,-0.6943184733390808,8.680177688598633
1689018019553035097,-0.1395496428012848,0.03621898964047432,-0.3898867964744568,1.403002142906189,-0.5363011956214905,8.53413200378418
1689018019562035097,-0.15552860498428345,0.01065264455974102,-0.3834952116012573,1.2425906658172607,-0.3208230137825012,8.325836181640625
1689018019572035097,-0.16085493564605713,-0.012783173471689224,-0.3717772960662842,1.0235211849212646,-0.10295066982507706,8.11754035949707
1689018019582035097,-0.15659387409687042,-0.02876213937997818,-0.3526025414466858,0.7314286231994629,0.12090718746185303,7.953537940979004
1689018019592035097,-0.14061491191387177,-0.034088462591171265,-0.33129724860191345,0.49799394607543945,0.3172317147254944,7.802703380584717
1689018019601035097,-0.11504855751991272,-0.03621898964047432,-0.3067961633205414,0.3627215623855591,0.5003881454467773,7.710526466369629
1689018019610035097,-0.08096009492874146,-0.03302319720387459,-0.28122982382774353,0.3196259140968323,0.6799532771110535,7.600393295288086
1689018019620035097,-0.04048004746437073,-0.030892668291926384,-0.25353294610977173,0.3519476354122162,0.8307879567146301,7.529764175415039
1689018019630035097,0.006391586735844612,-0.02876213937997818,-0.2183792144060135,0.4141968786716461,0.9433154463768005,7.529764175415039
1689018019639035097,0.058589544147253036,-0.02876213937997818,-0.18429075181484222,0.46088382601737976,1.0450689792633057,7.4998369216918945
1689018019649035097,0.11504855751991272,-0.02876213937997818,-0.15552860498428345,0.4991910457611084,1.1468225717544556,7.501033782958984
1689018019659035097,0.1715075671672821,-0.029827404767274857,-0.1299622654914856,0.5590460896492004,1.2497732639312744,7.569268703460693
1689018019668035097,0.23116238415241241,-0.03195793181657791,-0.10546118021011353,0.6200982332229614,1.3515268564224243,7.643488883972168
1689018019678035097,0.2918824553489685,-0.034088462591171265,-0.07989483326673508,0.6236895322799683,1.3946224451065063,7.709329128265381
1689018019687035097,0.3515372574329376,-0.034088462591171265,-0.05965480953454971,0.5710170865058899,1.3682862520217896,7.839813232421875
1689018019696035097,0.4026699662208557,-0.03302319720387459,-0.04687163606286049,0.4800374209880829,1.278503656387329,8.067262649536133
1689018019706035097,0.4399542212486267,-0.03195793181657791,-0.04261057823896408,0.3471592366695404,1.1767500638961792,8.425195693969727
1689018019716035097,0.46125951409339905,-0.03195793181657791,-0.049002163112163544,0.16160860657691956,1.0797849893569946,8.778340339660645
1689018019726035097,0.4676510989665985,-0.030892668291926384,-0.06817692518234253,-0.07422025501728058,0.9169792532920837,9.226056098937988
1689018019735035097,0.45273739099502563,-0.023435818031430244,-0.08522115647792816,-0.21308395266532898,0.7422025203704834,9.674968719482422
1689018019744035097,0.42504051327705383,-0.012783173471689224,-0.09587380290031433,-0.1759738177061081,0.6260837316513062,9.908403396606445
1689018019754035097,0.38775625824928284,-0.003195793367922306,-0.09161274135112762,-0.043095629662275314,0.47884032130241394,10.049661636352539
1689018019764035097,0.3398193418979645,0.007456851191818714,-0.06072007119655609,0.12090718746185303,0.2992752194404602,10.145429611206055
1689018019773035097,0.2865561246871948,0.019174760207533836,-0.007456851191818714,0.24181437492370605,0.21308395266532898,10.222043991088867
1689018019783035097,0.23329290747642517,0.03515372797846794,0.06285060197114944,0.30286651849746704,0.22744916379451752,10.307038307189941
1689018019792035097,0.18642127513885498,0.05326322093605995,0.13528858125209808,0.3423708379268646,0.3495534360408783,10.345345497131348
1689018019802035097,0.148071750998497,0.07669904083013535,0.2045307755470276,0.38307225704193115,0.5626373887062073,10.406397819519043
1689018019811035097,0.1203748807311058,0.10546118021011353,0.2631203234195709,0.45250412821769714,0.7769184112548828,10.503362655639648
1689018019821035097,0.1022653877735138,0.13741911947727203,0.3025350868701935,0.5829880833625793,0.8882488012313843,10.595539093017578
1689018019831035097,0.092678003013134,0.16405072808265686,0.32597091794013977,0.7493851184844971,0.8523358106613159,10.754754066467285
1689018019841035097,0.08202536404132843,0.1896170675754547,0.3281014561653137,0.9038110971450806,0.7493851184844971,10.96424674987793
1689018019850035097,0.07137271761894226,0.20985709130764008,0.3110572099685669,1.0079588890075684,0.6751648783683777,11.17972469329834
1689018019859035097,0.06072007119655609,0.22477079927921295,0.28549087047576904,1.0079588890075684,0.730231523513794,11.332953453063965
1689018019869035097,0.055393751710653305,0.2364886999130249,0.25672873854637146,1.0450689792633057,0.8439561128616333,11.481393814086914
1689018019879035097,0.049002163112163544,0.23755396902561188,0.21411815285682678,1.278503656387329,0.7876923680305481,11.690886497497559
1689018019888035097,0.030892668291926384,0.22050973773002625,0.1576591432094574,1.5957354307174683,0.44651859998703003,12.069170951843262
1689018019898035097,-0.011717909015715122,0.18748654425144196,0.09374327212572098,1.7334020137786865,-0.18794482946395874,12.591106414794922
1689018019908035097,-0.08628641813993454,0.14913702011108398,0.041545312851667404,1.6567875146865845,-0.9636661410331726,13.055582046508789
1689018019917035097,-0.18429075181484222,0.11291802674531937,0.01065264455974102,1.400607943534851,-1.5945383310317993,13.314155578613281
1689018019927035097,-0.28975191712379456,0.0884169489145279,-0.00532632227987051,0.9576806426048279,-1.8495208024978638,13.302184104919434
1689018019936035097,-0.3834952116012573,0.07776430249214172,-0.015978965908288956,0.4704606235027313,-1.7154455184936523,13.086706161499023
1689018019946035097,-0.4548678994178772,0.0788295716047287,-0.017044231295585632,0.02753331884741783,-1.3611036539077759,12.739546775817871
1689018019956035097,-0.4996090233325958,0.09587380290031433,-0.003195793367922306,-0.2825157940387726,-0.9720458984375,12.30978775024414
1689018019965035097,-0.5198490619659424,0.11930961906909943,0.017044231295585632,-0.395043283700943,-0.6452373266220093,11.891999244689941
1689018019975035097,-0.5166532397270203,0.1438107043504715,0.03941478580236435,-0.40462008118629456,-0.4082113802433014,11.550826072692871
1689018019984035097,-0.5038700699806213,0.17044231295585632,0.05965480953454971,-0.3495534360408783,-0.2238578498363495,11.33654499053955
1689018019993035097,-0.47936898469924927,0.19281286001205444,0.07456851005554199,-0.25258827209472656,-0.1280897855758667,11.165359497070312
1689018020003035097,-0.45273739099502563,0.21198762953281403,0.07989483326673508,-0.2214636504650116,-0.14844051003456116,10.94389533996582
1689018020013035097,-0.4271710515022278,0.23116238415241241,0.08096009492874146,-0.31364041566848755,-0.2322375625371933,10.746374130249023
1689018020022035097,-0.4048004746437073,0.24927188456058502,0.07776430249214172,-0.4908113479614258,-0.3519476354122162,10.591948509216309
1689018020032035097,-0.3856257200241089,0.26631611585617065,0.07030745595693588,-0.6931213736534119,-0.4728548228740692,10.375272750854492
1689018020041035097,-0.36964675784111023,0.287621408700943,0.06178533658385277,-0.895431399345398,-0.5207388401031494,10.089165687561035
1689018020051035097,-0.3536677956581116,0.31318774819374084,0.06072007119655609,-1.0103530883789062,-0.5602431893348694,9.854534149169922
1689018020061035097,-0.34088462591171265,0.3387540876865387,0.06711165606975555,-1.0031704902648926,-0.5566518902778625,9.59596061706543
1689018020070035097,-0.32277512550354004,0.35899412631988525,0.07456851005554199,-0.9373299479484558,-0.4967968463897705,9.356539726257324
1689018020080035097,-0.30360037088394165,0.37390780448913574,0.07669904083013535,-0.8451532125473022,-0.45010989904403687,9.1446533203125
1689018020090035097,-0.2833603322505951,0.3802993893623352,0.0788295716047287,-0.7194576263427734,-0.40701428055763245,8.935160636901855
1689018020099035097,-0.2641855776309967,0.38242992758750916,0.08202536404132843,-0.5746083855628967,-0.456095427274704,8.766369819641113
1689018020109035097,-0.24927188456058502,0.3792341351509094,0.09054747968912125,-0.4082113802433014,-0.5195417404174805,8.576030731201172
1689018020118035097,-0.23542344570159912,0.36858150362968445,0.10546118021011353,-0.24181437492370605,-0.545877993106842,8.38569164276123
1689018020128035097,-0.22050973773002625,0.3526025414466858,0.12250541150569916,-0.08858545869588852,-0.5793967843055725,8.200140953063965
1689018020137035097,-0.20985709130764008,0.333427757024765,0.13209278881549835,0.06344634294509888,-0.6129156351089478,8.044517517089844
1689018020148035097,-0.1992044448852539,0.30786141753196716,0.13315805792808533,0.19273322820663452,-0.6260837316513062,7.920019149780273
1689018020156035097,-0.18642127513885498,0.2737729549407959,0.12783172726631165,0.2753331959247589,-0.5877764821052551,7.819462776184082
1689018020166035097,-0.1715075671672821,0.23755396902561188,0.1203748807311058,0.3172317147254944,-0.46327802538871765,7.705738067626953
1689018020176035097,-0.15020228922367096,0.20026971399784088,0.11185276508331299,0.3447650372982025,-0.2717418968677521,7.590816497802734
1689018020186035097,-0.12250541150569916,0.16085493564605713,0.10546118021011353,0.3447650372982025,-0.090979665517807,7.495048522949219
1689018020195035097,-0.09161274135112762,0.12357067316770554,0.09800432622432709,0.304063618183136,0.03711012750864029,7.432798862457275
1689018020205035097,-0.05965480953454971,0.08735168725252151,0.092678003013134,0.23702596127986908,0.12210428714752197,7.424419403076172
1689018020214035097,-0.029827404767274857,0.055393751710653305,0.09161274135112762,0.14724339544773102,0.14365209639072418,7.502231121063232
1689018020224035097,-0.00532632227987051,0.026631610468029976,0.09800432622432709,0.05147533491253853,0.07661445438861847,7.663839340209961
1689018020233035097,0.01065264455974102,0.0,0.10013485699892044,-0.016759412363171577,-0.033518824726343155,7.8733320236206055
1689018020243035097,0.017044231295585632,-0.026631610468029976,0.1022653877735138,-0.03232172131538391,-0.13766659796237946,8.136693954467773
1689018020253035097,0.015978965908288956,-0.06072007119655609,0.10546118021011353,-0.009576806798577309,-0.24779987335205078,8.402450561523438
1689018020262035097,0.01065264455974102,-0.09906959533691406,0.11291802674531937,-0.009576806798577309,-0.3196259140968323,8.604761123657227
1689018020272035097,0.00532632227987051,-0.13635385036468506,0.12676647305488586,-0.10055647045373917,-0.3315969407558441,8.752004623413086
1689018020281035097,0.001065264455974102,-0.17044231295585632,0.14594122767448425,-0.27653029561042786,-0.29448679089546204,8.858546257019043
1689018020291035097,0.001065264455974102,-0.1949433982372284,0.1672465205192566,-0.4800374209880829,-0.22505494952201843,8.951919555664062
1689018020301035097,0.004261057823896408,-0.20985709130764008,0.185356006026268,-0.6548141837120056,-0.15921440720558167,9.059659004211426
1689018020310035097,0.009587380103766918,-0.21518342196941376,0.20133498311042786,-0.8092401623725891,-0.06464344263076782,9.184157371520996
1689018020319035097,0.019174760207533836,-0.21092236042022705,0.22477079927921295,-0.9720458984375,0.033518824726343155,9.287108421325684
1689018020330035097,0.030892668291926384,-0.19813919067382812,0.25246766209602356,-1.1097124814987183,0.12210428714752197,9.379284858703613
1689018020339035097,0.044741105288267136,-0.1757686287164688,0.27696874737739563,-1.1731587648391724,0.2513911724090576,9.496601104736328
1689018020348035097,0.06072007119655609,-0.15020228922367096,0.2929477095603943,-1.1492167711257935,0.386663556098938,9.653421401977539
1689018020358137067,0.08096009492874146,-0.1257012039422989,0.29507824778556824,-1.059434175491333,0.5003881454467773,9.860519409179688
1689018020368137067,0.10013485699892044,-0.10333064943552017,0.2886866629123688,-0.9097966551780701,0.5877764821052551,10.08198356628418
1689018020377137067,0.11717908829450607,-0.08628641813993454,0.2695119082927704,-0.7003039717674255,0.5662286877632141,10.340557098388672
1689018020387137067,0.12676647305488586,-0.07776430249214172,0.24394555389881134,-0.47644612193107605,0.40940847992897034,10.650606155395508
1689018020396137067,0.12463594228029251,-0.07563377171754837,0.21411815285682678,-0.2908954918384552,0.1951274424791336,10.957063674926758
1689018020406137067,0.11291802674531937,-0.0788295716047287,0.18002969026565552,-0.15801730751991272,0.002394201699644327,11.243170738220215
1689018020415137067,0.09480853378772736,-0.08309062570333481,0.15020228922367096,-0.07302314788103104,-0.10295066982507706,11.444283485412598
1689018020425137067,0.07776430249214172,-0.08628641813993454,0.13209278881549835,-0.05746084079146385,-0.06224924325942993,11.534066200256348
1689018020435137067,0.06391586363315582,-0.08415588736534119,0.1299622654914856,0.0347159244120121,0.019153613597154617,11.591526985168457
1689018020444137067,0.049002163112163544,-0.0884169489145279,0.12250541150569916,0.35913026332855225,-0.07182604819536209,11.714828491210938
1689018020454137067,0.023435818031430244,-0.10439591109752655,0.092678003013134,0.7625532150268555,-0.3902548849582672,11.94946002960205
1689018020463137067,-0.020240023732185364,-0.13102751970291138,0.044741105288267136,1.016338586807251,-0.8391676545143127,12.229581832885742
1689018020473137067,-0.0788295716047287,-0.15978966653347015,-0.009587380103766918,1.0438718795776367,-1.216254472732544,12.407950401306152
1689018020482137067,-0.14594122767448425,-0.17896442115306854,-0.06391586363315582,0.910993754863739,-1.423352837562561,12.42351245880127
1689018020492137067,-0.2130528837442398,-0.18322548270225525,-0.11185276508331299,0.7098807692527771,-1.5275006294250488,12.340912818908691
1689018020502137067,-0.27590349316596985,-0.17257283627986908,-0.15020228922367096,0.50876784324646,-1.5562310218811035,12.191274642944336
1689018020511137067,-0.32597091794013977,-0.14913702011108398,-0.16618125140666962,0.2992752194404602,-1.4161702394485474,11.968613624572754
1689018020521137067,-0.3536677956581116,-0.11717908829450607,-0.15659387409687042,0.16759411990642548,-1.1683703660964966,11.584344863891602
1689018020530137067,-0.3579288423061371,-0.07669904083013535,-0.13315805792808533,0.14365209639072418,-0.8056488633155823,11.097125053405762
1689018020540137067,-0.3376888334751129,-0.026631610468029976,-0.09374327212572098,0.15562310814857483,-0.33279404044151306,10.702081680297852
1689018020550137067,-0.2972087860107422,0.024501081556081772,-0.044741105288267136,0.2885012924671173,-0.021547814831137657,10.427945137023926
1689018020559137067,-0.24714134633541107,0.07456851005554199,-0.003195793367922306,0.39863458275794983,0.2346317619085312,10.377667427062988
1689018020569137067,-0.18642127513885498,0.12463594228029251,0.014913702383637428,0.5566518902778625,0.5111620426177979,10.491392135620117
1689018020579137067,-0.12676647305488586,0.16511598229408264,0.009587380103766918,0.8774749040603638,0.5650315880775452,10.647014617919922
1689018020588137067,-0.07776430249214172,0.19387812912464142,-0.02130528911948204,1.2030863761901855,0.38786065578460693,10.824185371398926
1689018020598137067,-0.04367584362626076,0.21198762953281403,-0.08415588736534119,1.5969325304031372,0.03950432687997818,10.935516357421875
1689018020607137067,-0.02876213937997818,0.21092236042022705,-0.17789916694164276,2.0446481704711914,-0.4668693244457245,11.014524459838867
1689018020617137067,-0.02876213937997818,0.18855179846286774,-0.29401299357414246,2.3558943271636963,-0.9612719416618347,11.062408447265625
1689018020626137067,-0.03941478580236435,0.15020228922367096,-0.4175836443901062,2.472013235092163,-1.2401964664459229,10.978611946105957
1689018020636137067,-0.05326322093605995,0.10759171098470688,-0.5336974859237671,2.4396915435791016,-1.3263877630233765,10.746374130249023
1689018020645137067,-0.06817692518234253,0.07030745595693588,-0.6359628438949585,2.2828712463378906,-1.2964601516723633,10.448295593261719
1689018020655137067,-0.08415588736534119,0.041545312851667404,-0.7073355913162231,2.0195090770721436,-1.2461819648742676,10.0951509475708
1689018020664137067,-0.1022653877735138,0.026631610468029976,-0.7467503547668457,1.599326729774475,-1.2342109680175781,9.697713851928711
1689018020674137067,-0.1203748807311058,0.026631610468029976,-0.7456851005554199,1.1528080701828003,-1.236605167388916,9.288305282592773
1689018020684137067,-0.14168016612529755,0.03621898964047432,-0.7126619219779968,0.8774749040603638,-1.2306196689605713,8.87291145324707
1689018020693137067,-0.1619201898574829,0.04687163606286049,-0.6572681665420532,0.7805097699165344,-1.1348515748977661,8.481459617614746
1689018020703137067,-0.1715075671672821,0.052197955548763275,-0.5954828262329102,0.7589619159698486,-0.9085995554924011,8.112751960754395
1689018020713137067,-0.1672465205192566,0.0511326938867569,-0.5336974859237671,0.7362170219421387,-0.5937620401382446,7.772775650024414
1689018020722137067,-0.148071750998497,0.047936901450157166,-0.4783037304878235,0.7338228225708008,-0.2621650695800781,7.480682849884033
1689018020732137067,-0.11398329585790634,0.04048004746437073,-0.4314320981502533,0.7398083209991455,0.04189852997660637,7.261613845825195
1689018020741137067,-0.06924218684434891,0.03302319720387459,-0.3952130973339081,0.6883329749107361,0.2609679698944092,7.094019412994385
1689018020751137067,-0.020240023732185364,0.026631610468029976,-0.3675162196159363,0.569819986820221,0.4010287821292877,6.967126846313477
1689018020761137067,0.029827404767274857,0.020240023732185364,-0.3526025414466858,0.4537012279033661,0.5327098965644836,6.898891925811768
1689018020770137067,0.08202536404132843,0.014913702383637428,-0.3483414649963379,0.42616790533065796,0.6715735793113708,6.853402137756348
1689018020779137067,0.13209278881549835,0.00532632227987051,-0.3536677956581116,0.5063736438751221,0.7912836670875549,6.871358871459961
1689018020789137067,0.1810949593782425,-0.009587380103766918,-0.36325517296791077,0.5638344883918762,0.8774749040603638,6.971915245056152
1689018020799137067,0.22796659171581268,-0.027696875855326653,-0.3760383427143097,0.5195417404174805,0.912190854549408,7.086836814880371
1689018020809137067,0.2737729549407959,-0.04261057823896408,-0.39095205068588257,0.39863458275794983,0.9193734526634216,7.199364185333252
1689018020818137067,0.3163835406303406,-0.05006742849946022,-0.4026699662208557,0.2609679698944092,0.9014168977737427,7.339425086975098
1689018020828137067,0.3536677956581116,-0.049002163112163544,-0.4122573435306549,0.14484919607639313,0.8523358106613159,7.518990516662598
1689018020837137067,0.3845604658126831,-0.041545312851667404,-0.41545313596725464,0.03232172131538391,0.7841010689735413,7.724891662597656
1689018020847137067,0.4069310128688812,-0.030892668291926384,-0.4122573435306549,-0.06464344263076782,0.6799532771110535,7.978676795959473
1689018020856137067,0.4165183901786804,-0.020240023732185364,-0.40053942799568176,-0.14604629576206207,0.5410895943641663,8.299500465393066
1689018020866137067,0.4133225977420807,-0.008522115647792816,-0.3792341351509094,-0.2106897532939911,0.3734954595565796,8.628703117370605
1689018020876137067,0.3984088897705078,-0.001065264455974102,-0.35047200322151184,-0.25737667083740234,0.1759738177061081,8.947131156921387
1689018020886137067,0.3717772960662842,0.006391586735844612,-0.3195793330669403,-0.26815059781074524,0.0011971008498221636,9.299078941345215
1689018020894137067,0.33662354946136475,0.013848437927663326,-0.2886866629123688,-0.32680851221084595,-0.10055647045373917,9.59835433959961
