t,ax,ay,az,wx,wy,wz
0.0,-0.0788314546504272,-0.08586787396143768,0.13540738278780498,-0.024448984154061985,0.15203210658302235,0.19967711574865793
0.01,-0.20706802570786603,-0.10593807772601124,0.10335828998359611,-0.024646253409142463,0.1568605537200694,0.2048150489794905
0.019,-0.37151907806199946,-0.10674330353636274,0.08621641136334428,-0.022093913380338354,0.16112989749225934,0.1998623630119633
0.028,-0.5224701069082576,-0.08208824711938087,0.06427765709329313,-0.018670401414417673,0.16347013438900745,0.18633085350135337
0.039,-0.6688426549993327,-0.04200668847324033,0.03570201997284307,-0.013765287399288399,0.16353649931277386,0.16251655990620933
0.047,-0.821571723905268,-0.028456972599163702,0.03275647652111124,-0.011063812440091636,0.15939734779789633,0.1395043275442768
0.057,-0.9453848781947556,-0.042197313748795075,0.04815083701049553,-0.008871618836041272,0.15108086186164812,0.10875167527632973
0.066,-0.9880252981891765,-0.0730158265022473,0.047693675076304225,-0.006381745311630046,0.1407012514501828,0.0821904793902605
0.076,-0.9687589571201005,-0.05452421657117677,0.042623315543356376,-0.0032819185679455257,0.13033458794877065,0.05850475633142185
0.086,-0.9640701547654897,0.0046097919003113205,0.05052630950352736,0.0003319169644242978,0.1203484232559299,0.03530015297052781
0.095,-0.9933721840692878,0.04670537463032459,0.07520187345183663,0.002907092769723346,0.10675127425639909,0.019180412565705234
0.104,-1.0049203185716424,0.09311166864951273,0.10944205684267007,0.003264086818430194,0.08825050246764936,0.012245690084419307
0.114,-0.9914098490133788,0.11203006722623096,0.11656193371957778,0.0029399516990820987,0.0639624671605572,0.01140640234618882
0.124,-0.9731893103238038,0.07253911025029239,0.08708294908598738,0.005783332634014777,0.0393978772809777,0.008541259750660899
0.133,-0.9342109704545783,0.016657848849922954,0.05126471900469899,0.013045288129930773,0.01789292872942006,0.0043130979146188755
0.142,-0.8655429872788828,-0.04730953124542016,0.0022481852831330897,0.023767336693598987,-0.0039963506440518414,0.0063860498408289165
0.152,-0.8305553426486585,-0.09263168279823279,-0.031006874599230065,0.036371024850878335,-0.026559618471266134,0.008712635953726653
0.161,-0.8360593932773401,-0.08047498002241163,-0.02607828759828431,0.04899358568208951,-0.046597197408181516,0.008221712729804079
0.171,-0.8199556971850752,-0.04118345120285748,-0.013791456822844269,0.060370010430373384,-0.0659647457628412,0.0032064360027936356
0.181,-0.7906791196980434,0.004190440383794833,-0.008454531292740146,0.06924444958124615,-0.08277655366822642,-0.005771234297778899
0.19,-0.7466116639675626,0.054603378619123594,-0.02353250015835022,0.07442292685815169,-0.09465301046633881,-0.012774181516924298
0.199,-0.697961633373149,0.09167258095297104,-0.05016049865913133,0.076927465677709,-0.10425236530818809,-0.01708721861239737
0.209,-0.6810192017369264,0.09372303581493802,-0.06068478204409261,0.07781496949118635,-0.11228186579410755,-0.02117526473377265
0.218,-0.6793877463592553,0.07185720704691537,-0.06150195311381228,0.07735108268900448,-0.1192017564485614,-0.023485579936114602
0.228,-0.6603333818649909,0.04100277933391446,-0.08698088215708542,0.0771394469804103,-0.12478406203342593,-0.02377745200871365
0.237,-0.6424514133560726,0.0361446975867931,-0.11104046341080613,0.07749377471397749,-0.12793255330852923,-0.02522861006739495
0.246,-0.6670210949071818,0.061267489782800534,-0.1191180915229129,0.07790573253205695,-0.13197183567825257,-0.029079390537431023
0.256,-0.7186657082841392,0.09846307172795692,-0.12419423099831392,0.07649822290986301,-0.13698218083803781,-0.035627488598046896
0.266,-0.7332642958949827,0.15251573242088196,-0.13136275966326816,0.0717761010374606,-0.1409221573189149,-0.0427477022677887
0.275,-0.7150757558430495,0.1954499236515386,-0.1505770138982942,0.06571382943951197,-0.1430707416198193,-0.047236384911381636
0.284,-0.6877177158800177,0.21253431811452786,-0.18050858699475703,0.05897509355389034,-0.14341706154439746,-0.04943091569384715
0.294,-0.6714048123693724,0.2166312886725468,-0.20137732651861248,0.050814900017635105,-0.14131533351689385,-0.05030081891528005
0.303,-0.654042487043173,0.22007553209057704,-0.21454545133142974,0.044800774435850226,-0.13859231447390458,-0.048909382092603995
0.313,-0.640843351868097,0.23239294666479762,-0.22739339101996847,0.03891537959525373,-0.13373055580822818,-0.04699698720567735
0.323,-0.6572870071946326,0.25612982324018163,-0.21931020508920737,0.03428562350982452,-0.12821417438225552,-0.0473910920998697
0.332,-0.6602678341954754,0.2693430737921224,-0.20873253304255376,0.030770873910539866,-0.12291627900564014,-0.04900750515074491
0.341,-0.6529670671105835,0.26188800340529217,-0.19687845773754534,0.027789742848076077,-0.1168347334601351,-0.050891778696097574
0.351,-0.6257915178051277,0.2366244132934867,-0.18176170194279387,0.026966421431754053,-0.10752011582631471,-0.051588523521909804
0.36,-0.5656385804476498,0.22436508083252288,-0.17854647634078724,0.027618367000440652,-0.09658212560909434,-0.050009675597834154
0.37,-0.5436777980321854,0.2446890169442011,-0.1588127823600024,0.028510343291165537,-0.08188017559215784,-0.04657195748897224
0.38,-0.5872187286666124,0.29070083963735655,-0.10540283801527804,0.027598795381300785,-0.06751164849318131,-0.04138466212952336
0.389,-0.655611836556162,0.3288029814961257,-0.043546824887085875,0.02551687599223711,-0.05694279388524967,-0.038721551501695296
0.398,-0.7053624158511304,0.35418111171369054,0.019882044989228343,0.02077877411848054,-0.049198351577185905,-0.03840520791281209
0.408,-0.7302312755099862,0.34098342414710137,0.07940707528067749,0.015601243938989817,-0.043640211058524364,-0.04093307754853517
0.417,-0.735121356263855,0.29581795916171416,0.12443477820650642,0.011035027828897023,-0.04010074540935964,-0.04768961294689525
0.426,-0.7273283453177368,0.24590498242230893,0.1587613438792023,0.007427040372589016,-0.03853868159495974,-0.057205119158331035
0.437,-0.7158186107805224,0.1903966966730959,0.1824820150312802,0.0036959484740066583,-0.03828948740977536,-0.0711910966820376
0.445,-0.6986709545764097,0.13983345050723378,0.19497342257493772,0.001485778173816779,-0.0388632174902824,-0.08133178760291031
0.455,-0.6715894716561048,0.09497262996715505,0.20232801180912616,-0.0008750143627737528,-0.03909741231438404,-0.08962363101743995
0.465,-0.6142227029806151,0.058624956017965954,0.20931731580238336,-0.0030059711025659987,-0.03894570396921858,-0.09207552791096023
0.474,-0.553353209109635,0.027213577446179284,0.22051532171295657,-0.004425393596958918,-0.037938941260383156,-0.08919727895635157
0.483,-0.5090066259968471,-0.007258209524648016,0.22857663685961402,-0.005853681115599757,-0.036294933953843325,-0.08513206726919358
0.493,-0.47398385970136075,-0.03457279309063412,0.22646288686351204,-0.007025230158705259,-0.033485606542422414,-0.07978475400542354
0.502,-0.45167753969120733,-0.06088155140804265,0.22350163992126681,-0.007079023300253251,-0.030500132130883238,-0.07540891818926529
0.512,-0.4301835434119482,-0.10592666527878022,0.22828201017447386,-0.00711696177214219,-0.02710524833678273,-0.07071932962894194
0.521,-0.3931518777355882,-0.15742351831782544,0.22249201638997437,-0.006036955316692258,-0.02472685604817363,-0.06665568291814473
0.531,-0.353869283469995,-0.20708596087770917,0.20319125505469104,-0.0026241683230439454,-0.022480963158446103,-0.06189702675960936
0.54,-0.33093879823064193,-0.24686694288560174,0.18872534450662262,0.003122636948552481,-0.019861169458620986,-0.05807246470388875
0.55,-0.30852268828480356,-0.28348160078033363,0.17223180368637947,0.011658241329705844,-0.016577931742275207,-0.053724089226128764
0.559,-0.27491224070775166,-0.31746015928203947,0.14879825107698508,0.0208963498370171,-0.013473076507670654,-0.04942057232871413
0.568,-0.24178527522557539,-0.346686040374451,0.11788759295036645,0.031111903059159916,-0.011497385697875223,-0.04603251752583498
0.578,-0.2110020388487923,-0.36010152392369194,0.08832453547903643,0.04187488232856818,-0.010400305431951036,-0.04403115652340849
0.588,-0.16814714281042942,-0.36794536055591875,0.05743103033743805,0.05236939987547083,-0.00957642765124871,-0.04131168793105254
0.597,-0.13053181155974108,-0.3665089302369121,0.031227124225436838,0.06291278188351795,-0.007830531148404617,-0.03765404932049915
0.606,-0.11191344244180387,-0.35081691930818415,0.011084128218716852,0.07298979660577315,-0.006745611978052474,-0.03356879862194043
0.616,-0.09669155040693066,-0.31140360575833176,-0.022774248467877317,0.0821466740559258,-0.005611668625798062,-0.02827250351990566
0.625,-0.09687759019053183,-0.24716005772901503,-0.05589161743213008,0.08921321825388151,-0.004519587156867033,-0.02303241024127175
0.635,-0.11704290522815285,-0.17297159576001947,-0.07743818412246561,0.09446793374901927,-0.0050381167731077215,-0.01810094389031931
0.644,-0.14444448097585147,-0.10124264237574646,-0.09703428823718158,0.09733956032607191,-0.008182600517390184,-0.015980375712197882
0.654,-0.17764793293194486,-0.023383172419691595,-0.11971210668875304,0.09778136644219894,-0.013938823014460144,-0.016053497657827518
0.663,-0.19404531022303256,0.056635943124016666,-0.13333396271095257,0.09617385134905036,-0.01985479989456696,-0.016194162284171178
0.673,-0.2007774659868404,0.1489890692073484,-0.14739622801768076,0.09339172981793827,-0.027637075595044053,-0.014636049512029684
0.682,-0.21445841299126636,0.23734111978621975,-0.16158169205591025,0.08868849134035986,-0.03573358746277353,-0.012174029116875776
0.692,-0.23327175730216404,0.3273685738558477,-0.17117056440355638,0.08255999243662743,-0.044422320820625666,-0.009938210669436185
0.701,-0.251491609484492,0.40742611772304016,-0.16575418220551463,0.07563372600006864,-0.05364777677500159,-0.010300029881088933
0.711,-0.2693556975522706,0.4892271599625885,-0.14602547422347137,0.0664676035903109,-0.06600414799103167,-0.01378191666125284
0.72,-0.29717612361884926,0.5538982691147812,-0.12229141331437178,0.05659266610908237,-0.07971534136799649,-0.021054304406989653
0.73,-0.31472530438893564,0.5985800178901319,-0.09631224620725368,0.045119179238887905,-0.09560160307904256,-0.03420933631158924
0.739,-0.2975101136605913,0.6003804081638748,-0.09059198845225194,0.03522524858373006,-0.11071242993151711,-0.04818297529035142
0.749,-0.24051903398934776,0.5649642802400735,-0.12118235383047457,0.02681135221467488,-0.12545187857349635,-0.06417460735011159
0.759,-0.16212232808234037,0.528475669782563,-0.1686889439912433,0.02050084671588529,-0.1366701915262257,-0.078530226836067
0.767,-0.10072642152227211,0.5042581476700629,-0.1914776351990325,0.017187290553697616,-0.1437822228859179,-0.08775777102424906
0.777,-0.05852891411125191,0.4966605497242371,-0.2029477311389778,0.014642829023160928,-0.14979568236835428,-0.09613721194385536
0.786,-0.017986591893620292,0.48819124652267326,-0.21529851794822868,0.014485907560593795,-0.1528989236098671,-0.09944478177085035
0.796,0.02052745297436416,0.48034292090377445,-0.2270318059873796,0.015677118421831938,-0.1515350591062429,-0.0994251301617349
0.805,0.03973111336565105,0.48335126534575956,-0.22656717437711785,0.016034927236703057,-0.14696218299792663,-0.09704156894111453
0.815,0.045058269287604126,0.4966482583499729,-0.22007271685390328,0.016101453294418033,-0.13995515255388657,-0.09276999770763847
0.824,0.03377984914021746,0.504911528799142,-0.21380021535898244,0.016307569535558914,-0.13237989339347975,-0.08700910995289755
0.834,0.01724763159999844,0.49765480241099724,-0.1933970993842056,0.016760098884726786,-0.12227709398926163,-0.0797047388028778
0.844,-0.0031653920376104455,0.49120843103959233,-0.15673073138528604,0.016768856912362552,-0.11274055818068987,-0.07400308635821069
0.853,-0.034304630516649115,0.48490408063809143,-0.12214963052307574,0.017888320346888503,-0.10379560579273,-0.0730487133340294
0.862,-0.05553787195947338,0.48271708488235954,-0.08775790878347038,0.018920725004609416,-0.09436221888408394,-0.07558999482998362
0.872,-0.06668080853324557,0.4933648386565964,-0.052412725671449445,0.019970752422321898,-0.0838534540528574,-0.08176067621193274
0.881,-0.07498404907802289,0.5096845883209267,-0.035398267820065527,0.020844221112232282,-0.07266033436835373,-0.09118156167300068
0.891,-0.07257385516328224,0.5267084964054395,-0.03370866171497505,0.02129980502744711,-0.06021193007979621,-0.10301007953316754
0.9,-0.06633842440028634,0.5379016023101509,-0.04298348508544936,0.020997744882242913,-0.0469040451262738,-0.11343850726273225
0.91,-0.056895873669385824,0.5402291057775254,-0.0642046255367536,0.02064946299784289,-0.031060863930504307,-0.12302077730459472
0.919,-0.03700935157542398,0.5340508176663866,-0.0814762763435901,0.01988023728834021,-0.015872091409943067,-0.1272927551140821
0.929,0.004624263521880653,0.5252329764973158,-0.09448070973236765,0.01924101224680771,0.00047516677816480284,-0.12670276640197772
0.938,0.040559315504345356,0.5135076325926343,-0.0973956168319042,0.018452479859394147,0.01501108744537916,-0.12386111574596725
0.948,0.05265410793286289,0.5090382982694869,-0.08737270701374344,0.018172939267560046,0.031307826650137885,-0.12132310138035853
0.957,0.05261385828867943,0.5183611495438777,-0.0738228673990833,0.01770050640023302,0.04592431897306347,-0.12152373550851606
0.966,0.03657921629863746,0.5370629899212621,-0.05643545418716504,0.01599985355135731,0.059876174640284364,-0.12218219783090088
0.976,0.020229843592557417,0.559982619982842,-0.03631680749918914,0.013091056164429628,0.07216768648891791,-0.12235476881286597
0.986,0.0230617820528789,0.5799233471908011,-0.02151905219919764,0.008339233052869868,0.08080776655471879,-0.12269355490714752
0.995,0.03723106137284226,0.5926313129237903,-0.01248408879036866,0.002649502874946319,0.08630008589689239,-0.12116536539637605
1.004,0.05361995095886634,0.5965240906817462,-0.006175292201283777,-0.0030902084445688324,0.08955635402050502,-0.11668004899925137
1.014,0.08340186056624006,0.6041572535020727,-0.00587336304118703,-0.010111562346364171,0.09183734221966075,-0.1076977983093459
1.023,0.12487895362257592,0.6155817593755221,-0.008990639345713564,-0.016935336920699658,0.0924218865890784,-0.0973722250461943
1.033,0.16061135964608722,0.6304379822487405,-0.016548259211420824,-0.024807032328826112,0.09180601795388041,-0.08491910223814224
1.043,0.16888106690561663,0.6511727607702081,-0.0226828084521094,-0.03319106224536115,0.09039813755385259,-0.07417023889352597
1.052,0.16276887184809402,0.6776862008535122,-0.024437770115651056,-0.04142157791697669,0.08794528345593139,-0.06733166792410528
1.061,0.15909139235060457,0.6999335353028138,-0.027619609298014665,-0.04966343773974992,0.08386031287235543,-0.06098490525717666
1.071,0.1758206965764803,0.7029036292504299,-0.03225024433122513,-0.05889088541905756,0.07928710057371188,-0.05378313477432643
1.08,0.22012598048818402,0.6870377857246093,-0.03828806688698243,-0.06594725189148408,0.07647126007390476,-0.04686630307171359
1.089,0.25951874121427837,0.6530098107871366,-0.036008786178337956,-0.07247583949596868,0.07405814448260475,-0.04139706145321969
1.099,0.2517606117628204,0.6363220013428111,-0.007910451476156134,-0.0786097023244445,0.07298752784862567,-0.03917178077701339
1.109,0.2138962068117473,0.6522180068869864,0.0334664194037672,-0.08398716946449981,0.07125679550604443,-0.037286568764388524
1.118,0.17187756666439638,0.6658397358672111,0.07650268116168257,-0.08898289845038104,0.0679468614757836,-0.034630250942546834
1.128,0.141486364246638,0.6603916892827463,0.11867088173631417,-0.09410377215830766,0.06129835235569081,-0.030624526625231
1.137,0.15095292455915632,0.6399331243085955,0.13133516671888879,-0.09757378669864257,0.05437285564312916,-0.026105602730625108
1.146,0.17791405416422595,0.6212360882827626,0.11944926971888405,-0.0983856204702475,0.050031517749184046,-0.019040681920538302
1.156,0.2014742526270888,0.6014234446497251,0.09914063701581219,-0.09564894577856095,0.048517811839853216,-0.008060929205653433
1.165,0.21946812227643397,0.5987190773355611,0.07791253129542162,-0.09055951832101847,0.05023857936787893,0.0067118507691447974
1.175,0.22979313734466406,0.6220031842920991,0.047004281142833323,-0.0832160500843295,0.05485479155195552,0.026517866343202242
1.184,0.21097426348317613,0.6601061565527055,0.01963870142270531,-0.07428745414029331,0.062138534778250515,0.04905711546651449
1.194,0.154740323193403,0.7186859565983723,0.005906381766021412,-0.06435508498995754,0.07138082315737211,0.0745298640420511
1.203,0.07212759922276923,0.7848322503981524,-0.006226836673783567,-0.05387769638894736,0.08209158335071014,0.09706763167439929
1.213,-0.011836331511102277,0.8657722566031331,-0.01847453965142561,-0.04340285698421166,0.09526125088812719,0.11789985575741005
1.222,-0.10405120843366752,0.9558298009335922,-0.01416384825885792,-0.03426154926504496,0.1081596578060195,0.134113224878115
1.232,-0.2294486895262146,1.0460392069244764,0.017582719206081947,-0.026613915158926502,0.11962708566340621,0.14304261190033213
1.242,-0.3651971080658489,1.1256431811156142,0.07216184115549815,-0.02092508170295678,0.12799440237175203,0.140398330526406
1.25,-0.48615883898707457,1.1877657771075638,0.12352026759478234,-0.0192940998987946,0.13202869165748812,0.1291577621354929
1.26,-0.5753350326173852,1.245532790993165,0.18089611866052868,-0.01921220101640316,0.1336916859650775,0.11031219876180026
1.269,-0.6277816766671906,1.2922878955465227,0.21302851827357547,-0.020331149727464762,0.13325699773444302,0.0896537001878067
1.279,-0.6756320211571056,1.32771097875548,0.23288951485930898,-0.021794788378696747,0.132627386288694,0.0643897910049237
1.288,-0.7080030005762517,1.3494338096906517,0.25290962277325935,-0.02325304497320728,0.1311855566864465,0.04148024172855495
1.299,-0.7188345806932362,1.3577316288649353,0.2673282273214143,-0.025069613101486744,0.1276515404064279,0.014643331178636945
1.308,-0.69996421664553,1.338128710624736,0.26260052886705165,-0.025749191074536455,0.12270619450614101,-0.008287842062750118
1.317,-0.6540183825034304,1.3029099428771118,0.23951046472502074,-0.02653724000371324,0.11576542236636858,-0.033252701578087816
1.327,-0.5864857959901519,1.264827821565275,0.1965949589609425,-0.026584235293483558,0.10636366100404429,-0.061004517872260716
1.336,-0.5110376977645177,1.2138352895719002,0.15393480396710219,-0.025692398403387107,0.09807634457017197,-0.08338472634314577
1.345,-0.42369332878714366,1.1504419019348524,0.10299876565491169,-0.023611480208186958,0.09069950004587889,-0.10202740999727711
1.355,-0.33359870827994764,1.088615925320125,0.03780283163887791,-0.019671562096971407,0.08488724897283148,-0.11652343902721839
1.364,-0.25875992749577237,1.038892683005431,-0.022771055573241095,-0.014071050410689248,0.08209732825683964,-0.12272836748152663
1.374,-0.19965114041078835,1.0051624257481484,-0.06416652152194396,-0.006483555130983128,0.0810423271522148,-0.1215456172454567
1.384,-0.16945273582774084,0.9899535313800778,-0.07677498601806836,0.0016600367895595286,0.0795259239106084,-0.11417779968695099
1.393,-0.16858263633545256,0.9908664006029715,-0.0755610240155975,0.00960416603901039,0.07764065496694612,-0.10240830813908544
1.402,-0.1818336146952159,1.0054220536834255,-0.06582498583566476,0.01730701628160147,0.0750057603292213,-0.08916806264377564
1.411,-0.19503242975629698,1.0231291695559284,-0.05093546845095932,0.024326448996815086,0.0721317307084827,-0.07500418297474921
1.421,-0.21185386523321348,1.0411789902388149,-0.04552163859180079,0.03214438310580889,0.0692434401950617,-0.05954173282293461
1.43,-0.23691470388809605,1.067283189561037,-0.06111593818913867,0.04012210833598983,0.06837331415773422,-0.04552771286755357
1.441,-0.2933526460196626,1.121438291012383,-0.07650603086594573,0.05044897662412244,0.0704224802860923,-0.029164198479622632
1.45,-0.39112247001630374,1.205739620470589,-0.06397712038911257,0.057756204544911614,0.07367686684491022,-0.01530482298556753
1.459,-0.4976513103620778,1.3145736016267122,-0.03278080798445816,0.06313574550497197,0.07670909288471364,-0.0023277468963506256
1.469,-0.6077294561786252,1.4361517665230557,0.0009143414737515839,0.06485002426284242,0.07967724610039374,0.0067233424389797555
1.478,-0.7507631511011583,1.5635756981665152,0.035951171165471786,0.06219925301563342,0.0816709297866454,0.008657945356634616
1.487,-0.9056757513602665,1.6813671648649813,0.07509622508335839,0.05572869593181547,0.0819616108623251,0.004537203485887707
1.497,-1.0210045740840132,1.7712119880375585,0.08093739794248495,0.04571016668068868,0.08015510426285306,-0.006365231156717775
1.506,-1.1131547731049378,1.8394672918094221,0.05936819417963724,0.033964089532016996,0.07706789429300494,-0.025375947696476386
1.516,-1.2206356879511255,1.9034437819018029,0.05288207937948957,0.019588087899952866,0.07015656579091933,-0.0521651046653908
1.525,-1.3313284973595871,1.9716595545688904,0.07335416311615613,0.0024674600532316442,0.05904212184583317,-0.08123148227000407
1.535,-1.428813301797533,2.0386297740749657,0.10302196340744535,-0.019523575150630645,0.0429103392923092,-0.11410473010074747
1.544,-1.4842554438032778,2.0693249100320434,0.10813721882254479,-0.042650302638964785,0.02596900821349759,-0.13957791424689522
1.554,-1.489662759687486,2.0548168488381773,0.0855457817678357,-0.06829444751527391,0.00847792845157849,-0.15896147488508652
1.563,-1.4448872336187406,1.9825461994250673,0.042493731969313636,-0.08975098040075373,-0.006615552934343507,-0.16870986487663311
1.573,-1.356075898241905,1.8496205315139862,-0.014304443732494022,-0.11033149158221972,-0.02198416616684671,-0.17082384072210077
1.582,-1.2510573618897496,1.6986150796489377,-0.05862419751703088,-0.12370838866707073,-0.03307364235275062,-0.1650235498922094
1.592,-1.1549493663273516,1.5397718866690073,-0.09384680995513028,-0.1329284701839096,-0.043183090610257074,-0.1480695660007966
1.601,-1.0759368124134605,1.4115860252058514,-0.1286949104718873,-0.13525893339776895,-0.04898291342912192,-0.1257231264207241
1.611,-1.010201657644714,1.308085819397972,-0.16081575501115555,-0.1326294889707426,-0.051923282486682404,-0.09561851981772986
1.62,-0.9639561598602502,1.2361537104633626,-0.17669977885226223,-0.1261652700177842,-0.05186572206077813,-0.06285145054115066
1.629,-0.9453200131284698,1.20350151222677,-0.1761356363561516,-0.11807971043362203,-0.05027145495152921,-0.029078532375979606
1.639,-0.9432741866239227,1.1891838381545223,-0.16484130264735447,-0.10776902967829247,-0.047011526725365765,0.009367455767209067
1.648,-0.9320159171148445,1.1944724011448162,-0.16972416246136385,-0.09823797895279895,-0.042911501520952064,0.04235255982120063
1.658,-0.941790661815265,1.2556752542933944,-0.18100537147721737,-0.08787328121467716,-0.03821017044027673,0.0751055920537068
1.667,-1.0190289127135137,1.3695975943729666,-0.15451619355004242,-0.08234653042440061,-0.036311455806037465,0.09731768114774927
1.677,-1.14203739789439,1.5344515411798545,-0.09737074511641439,-0.08093366335277273,-0.03866756531748016,0.11262195053015472
1.686,-1.2567161760318832,1.700271558724013,-0.052761378215093996,-0.08500907567937188,-0.04594227062036785,0.11693967389208419
1.696,-1.3631823243017784,1.850414657089567,-0.011850103267881973,-0.0948032593335496,-0.05704357876746622,0.1136371025167853
1.705,-1.4424153860387783,1.9727408090916814,0.013273830725741563,-0.10782669137660332,-0.07244166110765345,0.10215248521488056
1.715,-1.5066516037937288,2.058583150126282,0.03785174630936383,-0.1259950552671008,-0.09355461775813496,0.08224442152814873
1.724,-1.5616645633316237,2.06802648224004,0.06279239095255898,-0.14444261181017176,-0.11728778147219712,0.05739240137367386
1.734,-1.5839261269668385,2.0344925785576065,0.024143117227453915,-0.16533382490271353,-0.1506781023422183,0.026832178013438485
1.743,-1.5581545391258238,1.9548405564047173,-0.023009620205397874,-0.18720636100318852,-0.19189094674451557,0.010793925161222472
1.753,-1.421278914105433,1.7517698244582456,0.005372879706158758,-0.20457116577396953,-0.23626479178038115,-0.0010749831158355157
1.763,-1.0509846388384807,1.4184208805791956,0.021190354042158428,-0.2147556861053685,-0.2733914442161119,-0.00830887045787478
1.772,-0.7043910570343627,1.0865863275961947,0.021543141977006727,-0.21673347069084598,-0.3013090906424252,0.003589225380951984
1.781,-0.38426222360527995,0.7336138584220698,0.048564535271743765,-0.20445831514067342,-0.31372158742324485,0.01130181013036315
1.79,-0.010918166153670278,0.39319930222123,0.04975878060474522,-0.1814870892503432,-0.3140803369306962,0.01887275907114092
1.8,0.24235357058002466,0.1103644944182412,0.013480872204133094,-0.14375696457017742,-0.2995531653849369,0.02373827393452172
1.809,0.37154933040288457,-0.1030621848679682,0.0060600329033860725,-0.10067695259997053,-0.27446012950002163,0.013744078566533794
1.82,0.4153942309073808,-0.2576900944048741,0.04866570002781878,-0.045225971731609124,-0.23913865665238043,-0.013686356685130945
1.828,0.39454752994214237,-0.31113352398120997,0.0605210747245758,-0.0020831449202531192,-0.21108526651326168,-0.048155198422388676
1.838,0.2530076336720813,-0.2770664288748347,0.08799734582493297,0.04596498766924303,-0.18080308103732332,-0.10388361375322379
1.847,0.031209258797754852,-0.22344369338166145,0.1938798712447533,0.08093017119275628,-0.16069494419101524,-0.15506097691404186
1.857,-0.1433713167763111,-0.18312283119259432,0.3628432259229389,0.10403388290377465,-0.14701087296923368,-0.1967792155312849
1.866,-0.26848528321590315,-0.1398096823590872,0.5580387931056782,0.11045129857247932,-0.14416851612071124,-0.22445303696907526
1.876,-0.3500261524102712,-0.1363729430240177,0.8133998825504447,0.1062406609960752,-0.15241075122498815,-0.25118280647454133
1.885,-0.3206792002205851,-0.18896527733964877,0.9953171599541208,0.0956695630625728,-0.16584878070255077,-0.2705861056786045
1.895,-0.20035144076768013,-0.28188738089832144,1.1308029046169223,0.07925119340423914,-0.18203595740620648,-0.2851595914234977
1.903808001,-0.04805746578151332,-0.41006359287018557,1.2183527062249206,0.06404279937227085,-0.1976198552585898,-0.28928771796866604
1.912808001,0.15685271374389193,-0.5708889861036426,1.2199597917665477,0.05352576179551747,-0.20844160548454604,-0.2839725574155318
1.922808001,0.39418304860603565,-0.726617993652042,1.1304200358794794,0.0520881918745562,-0.21184863007029808,-0.27362166298050017
1.932808001,0.5951158762849531,-0.8186123907060125,1.0257205233103526,0.06012678908150712,-0.20687044699356838,-0.2651297208068735
1.941808001,0.7080389292460452,-0.83619444542605,0.9504948063527782,0.0737769706933836,-0.1969226885796663,-0.26226804393651226
1.951808001,0.7856183517306738,-0.8181084541919411,0.8722460207821902,0.09152012923062887,-0.1807021053803336,-0.26701698866429496
1.961808001,0.8492527678334605,-0.7777405031614615,0.7924718815951357,0.10863364036658629,-0.1609156810445207,-0.2816811535088607
1.969808001,0.8896769044635159,-0.7118051401905207,0.7188038437547052,0.12211420891253136,-0.14265491719196993,-0.3007502886183785
1.979808001,0.913521076559011,-0.5901381093471351,0.6277380783736844,0.1370684560393072,-0.12132984617390334,-0.3319063220426942
1.989808001,0.919931967600253,-0.4482101180138422,0.5291828859676853,0.15192983403174115,-0.09900948584156868,-0.3728739982580508
1.998808001,0.9386193517864704,-0.3229763041210078,0.4292682155232741,0.16438782275967867,-0.07952800144298147,-0.4094860834244416
2.007808001,0.9747342249641848,-0.17560624137958783,0.32099293485563307,0.17596782135477063,-0.06117449894499454,-0.44404791259384363
2.018808001,0.9731620986067087,-0.013122244865822821,0.20041190561853814,0.1864784223188831,-0.04183406737062267,-0.47517818234431597
2.026808001,0.9287888772056627,0.11977567020393398,0.1482484449658007,0.190069536364479,-0.02650056070963502,-0.49150808842942684
2.036808001,0.8517467987184355,0.2668494507701968,0.0916154150416106,0.18912182503143718,-0.013541779251588134,-0.49787606884130287
2.046808001,0.7394507679460077,0.38110523010536673,0.039938978697254254,0.1817749364039563,-0.006054767449695957,-0.49348621986494534
2.055808001,0.6029116612731545,0.4415761728572306,0.03807398221775784,0.17065398057448888,-0.0038349649531501627,-0.48584553556024845
2.064808001,0.48509644811453584,0.5071275631880896,0.038496813785268244,0.1562146404152662,-0.004591073574755884,-0.4700463989120381
2.074808001,0.41390328905763135,0.5461776193831196,0.008315003114119892,0.13680343755896032,-0.006963958041628698,-0.44354683603715184
2.083808001,0.35869568870911855,0.5260530863605529,-0.047623846964162234,0.1180285671590888,-0.009768172585939002,-0.41465985152454654
2.093808001,0.27396847249330586,0.49710827059813,-0.11784495710093222,0.09933369460438937,-0.012693860380830684,-0.382018537600963
2.103808001,0.16844695543883342,0.4580912151503893,-0.1737890426470337,0.08384836038223185,-0.01651308647042674,-0.3541810408812301
2.112808001,0.06335837045578153,0.3861433630593979,-0.21716886623451015,0.07399780868046209,-0.022179440482027322,-0.3376350541034301
2.121808001,-0.03702684195338004,0.3013623758678778,-0.2804851480330937,0.07048767461219854,-0.028215847094707265,-0.33064069717653427
2.131808001,-0.07459624796168383,0.22222829115423676,-0.3662608115725385,0.07466632386147246,-0.031322638501853406,-0.3291039822377184
2.140808001,-0.03456870323369003,0.16278230219862463,-0.4427820548328837,0.08320045233133694,-0.02941433233809925,-0.3287960007401524
2.149808001,0.0035949923070355966,0.12675291492876928,-0.5098455040268655,0.09315262396141433,-0.025607540798880935,-0.3293713638436094
2.160808001,0.00693819303477089,0.12229102663786992,-0.5679846993228673,0.10727204660213938,-0.019414907175652647,-0.32968842534135157
2.168808001,-0.0013972538159894854,0.14266404476170172,-0.5995358532790824,0.11810981752305962,-0.012897231796687959,-0.3287108893908657
2.178808001,-0.00945062411147038,0.20303896831753598,-0.6577750325139774,0.12869083307209428,-0.00356732142311153,-0.3262788134803956
2.188808001,-0.03762814643804095,0.29519330894377077,-0.7280000383787248,0.13529444382938624,0.005687252838830132,-0.3212056293883709
2.197808001,-0.08334087593199778,0.3975922476745255,-0.7873209116732343,0.13754519621252062,0.01339472800369102,-0.31339398320304146
2.206808001,-0.11287029260896686,0.4755227701507482,-0.8539267399958362,0.1354905424632565,0.02073281508976303,-0.30236189544281356
2.216808001,-0.07214902007231504,0.4963980389108716,-0.9618537749703475,0.13248710367563687,0.03139997180254686,-0.2812402486850131
2.225808001,0.0404567748313692,0.48532995474461726,-1.084544285608311,0.13104998821551467,0.04559263348400018,-0.25206363345550753
2.235808001,0.14262920691926104,0.49634196741789566,-1.1831146554800547,0.12989026576923096,0.06592076862524368,-0.2102401142069638
2.245808001,0.17815792039895362,0.5469040508702856,-1.2044384102131145,0.1273936330012661,0.08657788028821854,-0.1635655222635643
2.254808001,0.145497138427719,0.622874595426992,-1.1743713950309211,0.12285218827247549,0.10501119619626106,-0.11390049168484119
2.263808001,0.09240940656869548,0.7247816349891524,-1.1267194783469208,0.1159750018301894,0.11999194352389955,-0.06419740302456134
2.273808001,0.028159400919088945,0.8296877242107918,-1.052384473692852,0.1042093260629231,0.1311556221245677,-0.010097642102066616
2.282808001,-0.02506053679731994,0.8909057576516942,-0.9684721076000171,0.08999035784492823,0.13695252065278976,0.03790694299313547
2.292808001,-0.03877415304579136,0.9030201262591672,-0.9037480049894077,0.07531236941349598,0.14033970871362852,0.0853555958337311
2.301808001,-0.028326857866907418,0.9089625775409778,-0.8594354061381205,0.06404961914086685,0.1435491787873546,0.12316580880825215
2.311808001,-0.034145969261270295,0.9349278236281684,-0.7896046164757018,0.05279493802773229,0.14607819651148093,0.1616571847836844
2.320808001,-0.04031142444430573,0.9597512490936578,-0.7244961305160018,0.04595529484582831,0.14678552816437912,0.19082101335778195
2.330808001,-0.06016724482429338,1.0061069011000459,-0.647821838580811,0.04011479434122783,0.14622206530376394,0.21337083811090232
2.339808001,-0.12544394301708522,1.0713080614741153,-0.5572437357505469,0.03628487211042129,0.14306364318664772,0.22552185564595686
2.348808001,-0.2032299993070118,1.1263925549218707,-0.47062797920070015,0.033866011153934075,0.13717213890512045,0.22691445840470217
2.358808001,-0.2569699639299992,1.1625134369703785,-0.39898873829880893,0.03210335081805182,0.12741447795082134,0.21570751278232436
2.367808001,-0.27131068193210545,1.1743852842112372,-0.32725113768966957,0.03091580518251442,0.11593035217315417,0.19190201179081487
2.377808001,-0.2309079254000666,1.1514206630694168,-0.25876888942362025,0.02946384795189575,0.10381545182356763,0.1542473430075985
2.386808001,-0.14639302822837724,1.1126960487067856,-0.22943743042121756,0.029946507706777467,0.09633326806201739,0.12004303450545632
2.396808001,-0.036289281503142645,1.0578915663350248,-0.21657956199547293,0.032613351757015754,0.09165040414625543,0.08495539328514035
2.405808001,0.04463874410385657,0.9962386619846708,-0.18775632736937847,0.037824415681467785,0.08944906057780605,0.057219224218744875
2.415808001,0.06877742545375173,0.9439072071418679,-0.11513405298951812,0.04491883709460441,0.08651208347567511,0.03141806412463449
2.424808001,0.0690869578654088,0.9138266485985412,-0.01374843114710563,0.05101644634655438,0.08006011380613616,0.010939743016206638
2.434808001,0.1187175188537611,0.8921314687737629,0.12823493365232863,0.055301778507249,0.0680032143442589,-0.003074129789651725
2.443808001,0.2773738839629341,0.9083355375926063,0.3158402633355238,0.05316303542600712,0.053036705467401565,0.004632732882344817
2.453808001,0.5235821685900893,0.9346265872514052,0.5742210242477357,0.03644010794734074,0.03713253127093889,0.050319780234153136
2.462808001,0.7186629326802324,0.8551022580618741,0.7391489136082848,0.012041944196545744,0.02563906478295773,0.1251554191036642
2.472808001,0.761248781235826,0.671047481126843,0.7614867814224726,-0.005937988512431852,0.01970007151797176,0.21784824718344575
2.481808001,0.7484557820935285,0.5167694217748314,0.7450873493783127,-0.003612353235360327,0.022824190877728082,0.29616770552113036
2.491808001,0.6544792950245194,0.45588667135373906,0.7659227326218813,0.01709426742962001,0.03439288104664793,0.37092475450634077
2.500808001,0.4147116029977729,0.5082360001191722,0.8764122729560767,0.04510999175470401,0.04894326730912239,0.41902367870161966
2.510808001,0.05363256223740756,0.6600089732550813,1.1464651751538324,0.07947561196927644,0.06206051858318064,0.4462144613561086
2.519808001,-0.3233086419022224,0.8368836818680776,1.4510250720496727,0.10193491304023805,0.06505103471656787,0.4402339032980757
2.529808001,-0.6686938703373325,1.0030931502862908,1.777056188032372,0.1133664113147012,0.06006804612207606,0.40005004391252996
2.538808001,-0.943645032601944,1.0802172364899967,2.0058168133890355,0.11214043722444039,0.05200953411978551,0.3413599309933947
2.547808001,-1.1220232944234456,1.0431039421602517,2.145337721416285,0.10333723711773075,0.04125118837390056,0.2571849340203436
2.557808001,-1.1553923967566644,0.8961843504446194,2.157172743521816,0.0905913473662994,0.03213755801548381,0.1494077601074185
2.566808001,-0.9910545483266952,0.7261061675000026,2.073528574676714,0.08207683440805977,0.02905580786267739,0.06405664210722656
2.576808001,-0.6288243214694755,0.6332643336473864,1.9534232651566779,0.07928120743667494,0.03539188277891985,-0.0051093550759132925
2.586808001,-0.21064873867823894,0.5904475675271874,1.7937682414309142,0.08099448157724157,0.051572759320061876,-0.03792729234408242
2.594808001,0.07676684785569478,0.5156355142931666,1.581497924011522,0.08664495725954778,0.07287843001328777,-0.04704462086271138
2.604808001,0.31637400811182453,0.38441691376771786,1.259122595371173,0.10587388564002911,0.10689807714281023,-0.04547965675837483
2.614808001,0.4760941288991747,0.22205010778020629,0.9430713559720373,0.13349908043337544,0.1418006479731897,-0.0321832482915173
2.623808001,0.4964086012607383,0.06927700119020941,0.6797140449503998,0.1643846529013811,0.1713143577569885,-0.010531292484629718
2.632808001,0.4284863521456094,-0.0436763341165855,0.40794175643736663,0.1990481254116762,0.19828984647772474,0.016662091727520457
2.642808001,0.2923585491779995,-0.12455429473911513,0.11331862183644731,0.23448595980665263,0.22190011819124864,0.05119886516942602
2.651808001,0.10492424838016821,-0.14922554380534486,-0.10568069267237375,0.26141760982408113,0.24001332282238447,0.08060999343316891
2.661808001,-0.14027750209961493,-0.0681416086040384,-0.27762878904919497,0.2846613779213962,0.2529547527662314,0.10536837167422093
2.671808001,-0.3903738261619777,0.10007823960549476,-0.354857378823903,0.2898795149211258,0.25526368744290073,0.12672478643540117
2.680808001,-0.630352856021036,0.308219570709935,-0.4155763365624349,0.27334004711884385,0.24411874016362592,0.15708395286781202
2.689808001,-0.8600204273244125,0.4938125583406391,-0.5515020593893811,0.23641182731734972,0.22119130686155064,0.20757326564049655
2.699808001,-1.132865436885342,0.6607581530141187,-0.7554594933227369,0.18239288404817516,0.18390590794800657,0.26431423243410873
2.709808001,-1.3322681348210055,0.8426765603645984,-0.8882716487046087,0.13105002088087012,0.1404256553301947,0.29402995918445507
2.718808001,-1.415845587841194,1.076236452198534,-0.9191731941833017,0.08360459564577052,0.09247464412891448,0.2954801456810352
2.727808001,-1.4756417394774028,1.3143052894672327,-0.8812043034674547,0.03333100260804437,0.04201246995749727,0.27228238536888894
2.737808001,-1.5719388452881005,1.5371787134426211,-0.775569949913635,-0.021272982123323077,-0.009889481947036302,0.2150028354369054
2.746808001,-1.6124796739471154,1.723606914122222,-0.6704472016287475,-0.0678548262929077,-0.05011313712612949,0.13910130862363157
2.756808001,-1.518033752997904,1.7575622520308658,-0.6275581876405822,-0.11544249130037096,-0.08610421530609604,0.05126975440396139
2.765808001,-1.361204840933121,1.6122888535688207,-0.6883027874803272,-0.15549415239068287,-0.11322918062229777,-0.024503049474063947
2.775808001,-1.1586508729105593,1.3223834770946024,-0.8302864670481412,-0.19040610797736396,-0.13456785530236373,-0.08420968303876933
2.784808001,-0.9316494889792626,0.9749619475007683,-0.9908025733459146,-0.21178881796080867,-0.14260363205946755,-0.11477332638819997
2.794808001,-0.6412352372572315,0.5325055655500341,-1.2527193392376397,-0.21695223459751786,-0.14257247635609127,-0.11164029582436628
2.803808001,-0.33354830507372213,0.012673067420818473,-1.5787498863227034,-0.200001506812438,-0.14348828149999862,-0.0601886770897649
2.813808001,-0.1014667113436224,-0.497932800436539,-1.8985847685368287,-0.15768661044623192,-0.1512347323939151,0.042984049246780315
2.822808001,0.14126038820779066,-0.72543659825899,-1.9124583459130855,-0.10319537025968155,-0.16228026957263936,0.16426121807406865
2.832808001,0.4007961026887056,-0.7500355960828676,-1.678449362254498,-0.05535232719218883,-0.16989885991891965,0.3144016635997079
2.841808001,0.4750986802914412,-0.7082576554598453,-1.4559981754358198,-0.030503767150119862,-0.16932902349086562,0.43993688819928967
2.850808001,0.40359532204992166,-0.5645904286725331,-1.2320501758343076,-0.011633410630654083,-0.156222640637614,0.5388737619703754
2.860808001,0.31138880477969516,-0.32129676144791147,-0.9403393349577805,0.002913755374820799,-0.12278405195379485,0.6051750410200387
2.869808001,0.29521817325116606,0.026396574327256866,-0.6726516282649204,0.006545788337161205,-0.07929941443807435,0.6247962290044293
2.879808001,0.43224990365370686,0.39052713197108524,-0.4823353698380618,0.0006626224552484194,-0.022962316048990454,0.626421627825066
2.889808001,0.5674410837430016,0.5536596029156212,-0.5441668414951737,0.004935479046413988,0.026633632612023082,0.6222219980738941
2.898808001,0.588663800757897,0.635120617443183,-0.6591079555537416,0.032036212735981236,0.05145518546762694,0.5983755402712694
2.907808001,0.5459983995901333,0.8108699287921246,-0.61938488607198,0.06900986840150491,0.06249459423429908,0.5487612488980534
2.917808001,0.4528985743416428,1.0792613860136602,-0.4390296117647259,0.10318832403922429,0.07365042664158371,0.4811707777926322
2.927808001,0.3314801501756917,1.3130940583074666,-0.25014361535985863,0.12636665347256076,0.09121746340210925,0.4063875775521062
2.936808001,0.22568466126757217,1.4473598425378464,-0.13908978516893689,0.14030257506612093,0.11392701128794933,0.3356802421152236
2.945808001,0.10541858785083807,1.5014601909983103,-0.09051959287297123,0.1530330176592744,0.14136983322574329,0.26671538352940116
2.955808001,-0.04206650354683816,1.490795197659939,-0.08439016348073326,0.17087918579617814,0.172932323254594,0.1988790029685791
2.964808001,-0.1871334728520257,1.4400282646987588,-0.07039318359701496,0.19094318279074918,0.198472914095134,0.15185023144476004
2.974808001,-0.3199055575811756,1.4039257021982898,-0.00477234171211921,0.2146859409015218,0.21894704271639256,0.12076823050324256
2.984808001,-0.4250196946104126,1.412368961785334,0.11713370118946853,0.23398106645581224,0.22962647286419524,0.10949346165479928
2.993808001,-0.5169479558502021,1.4181471685298044,0.2621781381359399,0.24477802230992382,0.23113502135677277,0.11648621286679663
3.002808001,-0.621375811107746,1.4348719801372507,0.414366357598827,0.2485701458329947,0.22392360704795805,0.12802894557720462
3.011808001,-0.715337746291626,1.4759179653125911,0.5678041425631705,0.25348081044034476,0.2077591282632717,0.13091379600060626
3.021808001,-0.785660319978088,1.5281724227015148,0.7100837858700328,0.2687822381840059,0.18088865515337935,0.12284404334067558
3.030808001,-0.8266171554863591,1.5955975234680697,0.8467242719581727,0.28776214852089504,0.1502665855283623,0.10634367833339434
3.040808001,-0.837770806944799,1.7350991488768357,1.075109151950755,0.3037598858978231,0.11580943879965444,0.0773747922057768
3.049808001,-0.8051563877278796,1.8790682452010166,1.3305469993793362,0.30671754003849644,0.08776285542604122,0.05398779762751243
3.059808001,-0.7528101648865535,1.9741287929330849,1.5888854123481755,0.292887832723941,0.06552536819138415,0.04128625657618243
3.069808001,-0.7037575229791279,1.9909653798305378,1.7922993571421457,0.2644805359256426,0.052531439801776145,0.02765512855241452
3.078808001,-0.666870779494281,1.9373367029395479,1.892720880474049,0.2351466056022675,0.04519314901852296,0.0065336976635424916
3.087808001,-0.6694667125228062,1.8257109042460755,1.8894311212777049,0.20994057212818276,0.038638969856863076,-0.022027894319023047
3.097808001,-0.7292640967141737,1.7207658745931864,1.8272733746796754,0.19729321476666029,0.028730394711562645,-0.041658257893975856
3.106808001,-0.7420722230848371,1.6826159418276618,1.731617467445889,0.20074726881283758,0.014594319692726574,-0.03695417366119431
3.116808001,-0.5954416025308058,1.6731744002749107,1.581806403961282,0.21463268747088232,-0.004552246509226942,-0.018324419281390662
3.125808001,-0.4166183460062636,1.7534521890333783,1.5311740554213498,0.22055869020728888,-0.017621498610155394,-0.004115108734602326
3.135808001,-0.24852093486915489,1.877057718406562,1.5887863065975845,0.2075706557654029,-0.024307795084507214,-0.015983976313976536
3.144808001,-0.07012337903161625,1.982742743243138,1.5976203074622213,0.18281035534159681,-0.026665373903994302,-0.04494592820568464
3.154808001,0.0856080434668062,2.021231708357052,1.466482574953962,0.15603946847070438,-0.02949222660432619,-0.08389774039248035
3.163808001,0.17510872360436738,1.9931090272161165,1.3046294160625975,0.13138223225784332,-0.029408747215430832,-0.12791568611855822
3.173808001,0.18001458961418892,1.936974316762742,1.2032835583543473,0.09815004595231448,-0.02313232245662824,-0.1735502267512517
3.182808001,0.15255754809522598,1.9067934143100667,1.0864907453574646,0.06621174043701163,-0.012623450168851452,-0.1946621713575707
3.191808001,0.21245949754111718,1.896018602666486,0.8205126829493199,0.03681770021171391,0.001304238529719529,-0.21033215392182752
3.201808001,0.34825736457577516,1.879762221141011,0.43765463840693125,0.011358210291848945,0.019795233419399347,-0.23295927688664944
3.210808001,0.4414237362270482,1.8495673317897188,0.08119190087251145,-0.003294329652555635,0.035530197413051995,-0.2516940796769619
3.220808001,0.5041421497794688,1.8217346571574913,-0.2588595551655112,-0.008715562434343738,0.04893441655358436,-0.2674172131671939
3.229808001,0.560728150006301,1.8439162804309583,-0.469822386513441,-0.00886703072888006,0.05960139848852904,-0.27704700152062695
3.239808001,0.6089518416639677,1.8743398574729628,-0.5896951033932509,-0.009057495213990272,0.0728227440828965,-0.28059326372796656
3.249808001,0.6495299443181292,1.8779909854336998,-0.6685432546502554,-0.01527540656589203,0.08911839468551447,-0.28205996924187504
3.258808001,0.6687610407730035,1.8238036596466634,-0.7590598844882093,-0.03282030033905101,0.11097965607236826,-0.27361296341420827
3.267808001,0.6694126507281726,1.6437508777188183,-0.8869375140585121,-0.06101722303149983,0.14032090438853784,-0.23306126254126128
3.277808001,0.623667076254717,1.4053656652860793,-1.0432899901295183,-0.09347145381745177,0.17226214976051063,-0.15510403075147772
3.286808001,0.5378022904875377,1.1992512376667668,-1.1813682658429254,-0.12379425961097372,0.19924304967240902,-0.07382436369434074
3.296808001,0.44502857085965175,1.019939906424723,-1.3392367996541064,-0.153881030445442,0.22195465035987755,0.002575391208594782
3.306808001,0.3388633911679957,0.883922727254965,-1.4890915767751813,-0.1763306949491971,0.233498664210621,0.04413448296740224
3.315808001,0.22615695337082822,0.7881606981412309,-1.5909442926916402,-0.19097045358176978,0.23244769103982535,0.032806437442071595
3.324808001,0.0867737240890735,0.7661726972552936,-1.651628090211402,-0.20335682455009657,0.22172816234805492,-0.01970369117277225
3.333808001,-0.09254643941517031,0.806446132438162,-1.722962206907071,-0.2157111403005976,0.206270920625057,-0.09152091014602876
3.343808001,-0.27579526828513495,0.8345855139494125,-1.8562809319862825,-0.23467467001112624,0.19382026314318845,-0.15962862510769377
3.352808001,-0.45468596073024986,0.8500799187544075,-1.9847152823774659,-0.25743249430434473,0.19190441514290124,-0.18748998870213845
3.363808001,-0.6331847649640938,0.8066175863556782,-2.088770718296936,-0.28194124857179415,0.19709166585408397,-0.16987820727532288
3.371808001,-0.777372871280794,0.6944917653506788,-2.152355803306681,-0.2989208975083248,0.20006329738886033,-0.13776008773002338
3.381808001,-0.8925183387375512,0.5867521469769573,-2.1635847408857196,-0.3138674081923782,0.19955468153804484,-0.09750636731730833
3.390808001,-1.0001089028626453,0.5211393492754002,-2.0923651323866523,-0.31715935843621346,0.1905578606645238,-0.06860043597350246
3.400808001,-1.1071044336631126,0.4879057749168997,-2.0207044885762455,-0.3052059039950968,0.1715688418487721,-0.052409042204672796
3.409808001,-1.2124420453473181,0.48785945463994684,-1.9840074367819358,-0.28514447033826934,0.15406440825599493,-0.03848551180536875
3.419808001,-1.3313549776307592,0.5271181308718142,-1.888006848121218,-0.2552014608648196,0.13808761688242857,-0.022146246884079256
3.428808001,-1.389735802498394,0.5493267754699531,-1.7543795305818801,-0.22605760831722668,0.12708854766846,-0.01236836005446678
3.438808001,-1.3206186570794394,0.58776316559674,-1.621389082273526,-0.19618842899264544,0.11729704806603371,-0.002492229438668672
3.448808001,-1.165138123728092,0.7170066328755904,-1.4997262133329206,-0.1665263141992151,0.10968760839073535,0.007331866589987027
3.457808001,-1.0283412663054146,0.8858302910224733,-1.3666122527864766,-0.14267535202618734,0.10711787288956898,0.009179574617066859
3.466808001,-0.9512252403312922,1.0398839730789455,-1.2018208050312897,-0.12450786871605117,0.10844620188310443,0.007504783671892252
3.475808001,-0.9358275711651125,1.1712853472829592,-0.9833872177658046,-0.11446249302902216,0.11198113317335484,-0.0013591413533107775
3.485808001,-0.953056742315046,1.250112667301757,-0.7496964944193092,-0.1116788554258345,0.11492677994680506,-0.011075982499634793
3.494808001,-1.0017379634422503,1.269577705504187,-0.5557730051108835,-0.11291774516441414,0.1139967322789731,-0.014204058986834005
3.505808001,-1.06075139848079,1.2547774407743848,-0.35611180439472745,-0.11725532756548679,0.10600434264305882,-0.011147203987892929
3.514808001,-1.0996928411667959,1.2125823781403966,-0.2186934893488258,-0.11987951040032022,0.0966953577540924,-0.004790353244131498
3.523808001,-1.1198609559759605,1.146168662759587,-0.0587861920815105,-0.1196989358199835,0.08448054828773444,0.00012500599330309294
3.533808001,-1.1071245014038462,1.0697948225283105,0.09267884736286064,-0.11332699547434005,0.07025923344658111,0.002408042749018346
3.542808001,-1.0591691057229728,1.0167532147440477,0.14656405379494283,-0.10076301299538386,0.05643437486325237,0.0004312399340048727
3.552808001,-0.9671088561017644,1.008316702207195,0.17362957479654406,-0.08096458872534672,0.04196865349566665,-0.0036946379142575015
3.561808001,-0.8708969291935686,1.0318598072930456,0.2053717511493086,-0.06026677703710734,0.03155619407521937,-0.007075189249360913
3.570808001,-0.8007962771552445,1.0417361989165337,0.2476761467160741,-0.04084509794741379,0.024771492708928634,-0.01233052442109344
3.580808001,-0.7335033500556118,1.0383439313146676,0.3098563926738307,-0.02600357489797213,0.023075521635346465,-0.017627833545094854
3.589808001,-0.6737865200865163,1.0076342943248733,0.3825760924960498,-0.016311671631871853,0.025744723516616618,-0.01834914765503605
3.599808001,-0.6563380989277923,0.9042302227378538,0.45548425472884535,-0.0027235534889186973,0.030196123395348953,-0.01527464390514742
3.608808001,-0.69673594198824,0.7738508190808537,0.4933283406516794,0.016919475838996105,0.03146962172997037,-0.012784737644697928
3.618808001,-0.7531200244299106,0.7310354563004882,0.5386063772416637,0.0485240393739882,0.03210397138506436,-0.010374246326731546
3.627808001,-0.7834415119186295,0.7815066149553185,0.5972490025136954,0.079097888196243,0.033436338381330456,-0.006733902761510955
3.637808001,-0.7948057509367468,0.8790241290957391,0.6914125134993769,0.10327419965842072,0.03576929041675837,-0.004026918850130976
3.647808001,-0.8327136930068291,0.9964930354310566,0.8572793087136137,0.11261888169731009,0.03477336829255699,-0.005966492818178118
3.656808001,-0.9100362388385224,1.047036084824334,1.0492353460786847,0.1045282090845582,0.02696593269202747,-0.014288320579041293
3.665808001,-0.9785520903161945,0.9923317605324905,1.2177009252342383,0.08728340285911391,0.010792399722683563,-0.026549157036138277
3.674808001,-1.0400357398178066,0.835527236183403,1.3528767576263676,0.07070246222856932,-0.013511827682777464,-0.045102130161132986
3.684808001,-1.0587625615775218,0.653279132530723,1.456500819635667,0.06454225126731418,-0.04667543999772013,-0.07235928698727627
3.694808001,-1.0157649374365008,0.5398473989986242,1.4846521852323118,0.07502850419738158,-0.08410814976128067,-0.0894677757614733
3.704808001,-0.9472090145005437,0.5424995653621294,1.4571394498184298,0.09610717354363639,-0.11630732919796312,-0.08031158775862376
3.713808001,-0.8744308852551523,0.6389715327429197,1.455700697963797,0.11367595776592614,-0.13351971222776282,-0.05173425251231773
3.722808001,-0.8239281439090365,0.8179995950809895,1.49443849697452,0.12128925937319805,-0.14199745297647062,-0.01398608044325795
3.732808001,-0.8097424899183493,1.0344410307324843,1.5748248152812878,0.11648158872624442,-0.14077235883549388,0.030504350253637215
3.741808001,-0.810839628008062,1.1954898587670648,1.6645921622906732,0.10080467215655997,-0.13293286305782104,0.06822149236570119
3.750808001,-0.8288637083729046,1.267402642871404,1.7430697375052624,0.07215941842627088,-0.12147048504064822,0.09602086685694877
3.760808001,-0.8949873749155401,1.2604697626642323,1.7756127553921885,0.033969801919202874,-0.10755711927550471,0.10715425657973707
3.769808001,-1.010100092100223,1.2040074421908136,1.7348954966413759,0.0025726722275618216,-0.09919249830947191,0.0949635751775609
3.779808001,-1.1743931762530373,1.0888533915555887,1.654739625496608,-0.01945871001235651,-0.0977060681270058,0.06976787288577169
3.789808001,-1.3760154386450385,0.9138985837619553,1.5721765882217147,-0.027359714143302644,-0.10696657501953281,0.04575168485980706
3.798808001,-1.5362548208518167,0.7520941078777675,1.4721553593857613,-0.02177763896895283,-0.1258146533544639,0.03157139324877406
3.807808001,-1.585370703488969,0.6994626796646369,1.3310531122502076,-0.00989095318505923,-0.1487981178892823,0.03022517219093216
3.817808001,-1.504203862521059,0.7438942452126899,1.086561873684789,-0.0023361414138499364,-0.16522446292693735,0.04202699198577388
3.826808001,-1.2995859993299415,0.8318917010892563,0.7725027471254403,-0.008572801100750184,-0.16633877487829785,0.06074618172073648
3.836808001,-1.0585863154847948,0.8791472416900115,0.4258904900929224,-0.03189043282065171,-0.15866084914499892,0.07856208797364456
3.845808001,-0.9244575587334986,0.7907874582769895,0.18778161749239755,-0.06377437590378347,-0.14586597763702377,0.08829592006339144
3.855808001,-0.975695812628756,0.594694389949145,0.0011426223440882252,-0.09470980381713417,-0.13169585888457663,0.10428449215987909
3.864808001,-1.1405944624143425,0.38981776717828664,-0.1444599618239633,-0.11182757583967223,-0.1198588991416045,0.12631778008725494
3.874808001,-1.259999432120998,0.25106193968033813,-0.303449807148757,-0.11658539198872847,-0.11198640775459666,0.14607841785580866
3.883808001,-1.308729397504158,0.22586606873579207,-0.44675765727527983,-0.11376562062848014,-0.10693889481422905,0.15299506221164438
3.892808001,-1.3231177621005554,0.29339483955053425,-0.5685076837545114,-0.10802267060281075,-0.10175084262589197,0.15135029398017807
3.902808001,-1.2844779113982268,0.44514856378022216,-0.7024368453464741,-0.10175279061175449,-0.09289947603259202,0.14965212649565818
3.911808001,-1.2440835232260135,0.6138774532851629,-0.7898789337230032,-0.09998740928467693,-0.08230889972857464,0.14883301005118502
3.921808001,-1.1979478432220185,0.7373612291206153,-0.8348432266143299,-0.10424178427563907,-0.06955115471569624,0.1509144995033804
3.931808001,-1.0678806040203854,0.8044294963007788,-0.892194753637473,-0.11793027205086426,-0.05941119351942187,0.1536437281790261
3.940808001,-0.8965481098236965,0.8358858728579895,-0.9567538904124375,-0.1372263002920869,-0.05451168353438821,0.155874408162764
3.949808001,-0.7664221657452411,0.7743059463069868,-1.0445643824573532,-0.157406434314312,-0.057892761792909656,0.15406428323426802
3.959808001,-0.685995196317086,0.6400304631641576,-1.19064732382914,-0.1722576988234926,-0.07147648939651309,0.15427276664669037
3.968808001,-0.6634979653260649,0.5142082296792787,-1.3440656759310534,-0.18041193379362822,-0.08972481611653574,0.15656692770026415
3.978808001,-0.6651181508452901,0.424939673254026,-1.5041304430200362,-0.18505769355187074,-0.11638682692927699,0.15051517839593395
3.988808001,-0.6667181488017495,0.4205340637786602,-1.6168444193558469,-0.18502808663675538,-0.14503494898978986,0.13856936155135896
3.997808001,-0.658251216992817,0.4725565421214867,-1.708449454784427,-0.18238973145924497,-0.172936443782335,0.12484352142064781
4.006808001,-0.6301115027678372,0.54152973183252,-1.7797390940492481,-0.17645235754522862,-0.2013154390429009,0.11112370931591727
4.016808001,-0.5916353729079762,0.6422560334384955,-1.8209552243306066,-0.167593690113415,-0.2286984767736965,0.10294149329356335
4.025808001,-0.5579244349815776,0.7111138618895758,-1.781422412398762,-0.1603326344669444,-0.24882874566473645,0.09486996908900458
4.035808001,-0.530919039421703,0.7517485835232108,-1.6600205168364783,-0.1537630102577612,-0.2657368128243853,0.08001201882977718
4.044808001,-0.5030850952759945,0.8091492836515368,-1.5636409342416582,-0.1428904274630891,-0.2759673814509288,0.07410172530950968
4.053808001,-0.46251919772909994,0.8534590463196013,-1.4927294934417392,-0.12575818532377792,-0.27696821211148276,0.07923216715264733
4.063808001,-0.39137889821347976,0.9053634961089535,-1.4112663293408936,-0.1042246807057312,-0.271293459738317,0.08987030782030891
4.073808001,-0.33845473011461946,0.9765557069393571,-1.3321814026590562,-0.08183354982131813,-0.2605825065736747,0.1012546253617504
4.082808001,-0.3330274983453649,1.0511554454296153,-1.2403131249082961,-0.060123786304636995,-0.2493662724280027,0.1076222366309724
4.091808001,-0.36535696805575274,1.1098042003532638,-1.099245471030061,-0.03763062040696059,-0.23909312505836172,0.11482992122386056
4.101808001,-0.4222042947160211,1.1344158891525906,-0.8820956132318551,-0.011766889025233667,-0.23504968310325466,0.1152638611750228
4.110808001,-0.4931026052559259,1.121923633390946,-0.6841990627315149,0.010258418295013755,-0.23920645550916442,0.10463892265612158
4.120808001,-0.5444033744273176,1.0942144831046816,-0.4911356927461805,0.03223305354643982,-0.2482007541607734,0.09229977044625286
4.129808001,-0.5747083049825831,1.075902174081035,-0.3099325521958566,0.0535442012775534,-0.2558808817197491,0.07937062914589138
4.139808001,-0.5863107058432337,1.0605891974540134,-0.10776424151747666,0.0767528949601093,-0.2594594989322869,0.061938030244980666
4.148808001,-0.5591479155136735,1.0582200370350257,0.07083979524888637,0.09967143864781773,-0.25775814294716576,0.043747895437226916
4.158808001,-0.4785544906996902,1.0741947332779669,0.21292534186962186,0.13010693260371836,-0.24989809554277678,0.029207380946066477
4.167808001,-0.3606059780497509,1.1275132872958775,0.31911528051768395,0.15836888738324198,-0.23774422588383418,0.02117687472243282
4.176808001,-0.22339038746239454,1.230443648263336,0.4477383790692142,0.18336473261469596,-0.22186486526218535,0.013460727880191842
4.187808001,-0.06298712805003759,1.367247847454414,0.5940262320512186,0.20648141299657352,-0.1993686236390162,0.00857742596161835
4.195808001,0.0908113642286365,1.489989099389287,0.7009087311639728,0.21952784532346395,-0.17959955523136428,0.0048379555394242315
4.205808001,0.18870169937541104,1.60571454807319,0.8640351108636694,0.23011489232537338,-0.15727623372845345,-0.0036670189355668195
4.215808001,0.22388930221698614,1.6857589202379337,1.067707064171254,0.23078288710405873,-0.14082044622827083,-0.019519519581654897
4.224808001,0.2073119970579862,1.703774578415651,1.2671642396765104,0.22297383778285312,-0.12901258777060565,-0.04290547675410539
4.234808001,0.15815814688438695,1.6359555776390022,1.4798227423786237,0.20869564156283674,-0.1177030285245235,-0.07013564849953324
4.243808001,0.12105466920027128,1.5055161490379871,1.6759798526133287,0.18964731406808447,-0.1094579756532616,-0.09293954172353185
4.253808001,0.09016008052955135,1.3558619666347862,1.8550055305916975,0.16623485274569552,-0.10245243100016196,-0.10688810970605327
4.262808001,0.06378236248107748,1.246873556463741,1.956534291454368,0.14484756640441113,-0.0957035102820721,-0.1024528860466847
4.272808001,0.08098385670566495,1.2311653535337073,2.0054941229685217,0.12890296402967924,-0.08412843227939482,-0.06416381285223928
4.281808001,0.14575984921107116,1.2933026966430408,2.0362946487476092,0.12470100157659271,-0.07104602300063421,1.895874323609584e-05
4.290808001,0.25675908864394575,1.347811286104869,2.086255070846472,0.12350615291074596,-0.06419518487405683,0.05550468084817317
4.300808001,0.3395909210574712,1.360903859033511,2.163193649221319,0.11187543079783613,-0.06670866736134143,0.07786506534585408
4.309808001,0.36757393786249537,1.3691267647166285,2.2672443902120474,0.0845182929259865,-0.07747610853204923,0.062211043283478665
4.319808001,0.42966874282310724,1.3524625456007349,2.331018034823078,0.041468263833917496,-0.0920682388927786,0.024653280397206566
4.328808001,0.5897870313605206,1.2869570374231964,2.2677324754042294,-0.009834033584775753,-0.10462592693761455,-0.019322745828983127
4.338808001,0.7764603016428591,1.1181155014784305,2.0775068169186626,-0.07271455136902559,-0.11341367083646534,-0.07069041392622516
4.347808001,0.9027924646542891,0.8731756401873302,1.8340735057543536,-0.13110573171610407,-0.11361071275270253,-0.10738446501388677
4.357808001,1.0150878734121058,0.6083804249673844,1.5102904282276364,-0.18841185657608053,-0.10264325249178835,-0.1238924112554893
4.367808001,1.1596536023822281,0.3689110133321062,1.1135543023059689,-0.2307601391179366,-0.08067171138330184,-0.10792425042063028
4.376808001,1.2831074941894833,0.19845838082925965,0.7323072986496657,-0.25066936315567084,-0.05370922224583788,-0.07157380165592635
4.385808001,1.3558455928261635,0.08719775687556999,0.37884209078228254,-0.2532322621215007,-0.021768956385840584,-0.02317797415207607
4.394808001,1.3604001981577154,0.06404218149051544,0.12190763374115449,-0.24134891184081128,0.012514015526096963,0.029372336693145464
4.404808001,1.2881625938417527,0.10766165973176525,-0.03353502535486534,-0.21817289514915822,0.05082559849890676,0.08595381054499915
4.416855871,1.175580634939862,0.1814022184009311,-0.09042509512561597,-0.18790363389165576,0.08707050913828575,0.12986430391680875
4.427855871,1.0888024514935104,0.23845677777312493,-0.13878487205281814,-0.16440777187822142,0.10783296985090285,0.13356117113320348
4.435855871,1.008839960226032,0.2699263968290137,-0.1925664973139665,-0.15179197693040053,0.11577207894079573,0.11370107224612809
4.445855871,0.9003391820909428,0.2810077843947837,-0.2507350618146987,-0.14156032161262574,0.11483621015721834,0.060866679895221515
4.454855871,0.7958104341005048,0.27533416147700296,-0.3546639883613747,-0.13409408833018924,0.104551359311157,-0.0020625160789733508
4.464855871,0.7194206660953397,0.2643646532248615,-0.5572112077555917,-0.1274684090218025,0.09011546395338312,-0.07167021170068616
4.473855871,0.6536756926100047,0.2674728717544076,-0.7328092804324903,-0.12369483068816159,0.07514322374237051,-0.12450692796119106
4.483855871,0.5834566646826637,0.3017653440537371,-0.9087157611134037,-0.12300662343079849,0.05662828008954637,-0.16913568853498617
4.492855871,0.5391767178316301,0.34125454274039857,-1.104034412699446,-0.12541712445261477,0.03819709221672578,-0.19640235953127283
4.502855871,0.4747777334386417,0.36519693516502055,-1.3072098646883996,-0.1305026896784529,0.01955124838570742,-0.21197262528210042
4.512855871,0.3825818027669793,0.39702495835017926,-1.4298760946809654,-0.13773377935156297,0.0038158202485181116,-0.2169811653754235
4.521855871,0.3120596263462913,0.40531359261971067,-1.4918510160697405,-0.14654144212608752,-0.006682763639468528,-0.20864308563655062
4.530855871,0.23955712673784682,0.3470940345881549,-1.5020716787600683,-0.155629927302013,-0.014686808307681447,-0.19471057628925825
4.539855871,0.1934282812003827,0.22312660748524082,-1.4983356249639195,-0.16221980320434623,-0.018727497379175048,-0.18322365793395623
4.549855871,0.1815223707099777,0.05047658222835534,-1.5809942886584887,-0.16197568576422447,-0.0199779737120699,-0.16787418259242376
4.558855871,0.22750847311338157,-0.0926257851735264,-1.6903707668294463,-0.1525087359322451,-0.016790758101599162,-0.14777951464767927
4.569855871,0.2769260447843358,-0.2584949936495906,-1.8354003948886841,-0.12678573015652356,-0.009091610722664525,-0.12506317582901627
4.578855871,0.3210238311142426,-0.35564658667064514,-1.963969260189369,-0.09254672686895232,0.0002752467704163145,-0.11118591542516515
4.587855871,0.35676159925791684,-0.38364078102155974,-2.057234580977535,-0.0499227452121689,0.00856652807669861,-0.09564763650787954
4.596855871,0.33846496055073466,-0.39177124569934263,-2.107580654901213,0.0003290459340958802,0.013073146150005354,-0.08114747614069073
4.606855871,0.28777456939696733,-0.3338921367968485,-2.0723762102032097,0.05925485333304969,0.013428840252087473,-0.06502386335168384
4.615855871,0.23982416866685627,-0.2178125872551921,-1.9641172658070825,0.11109321421538756,0.012504543755426712,-0.05116030340390018
4.626855871,0.2228707305611387,-0.07097234754990428,-1.8036407861303274,0.1656648481116701,0.013107121662556469,-0.039011167736622616
4.634855871,0.23122491630780287,0.025249395919557605,-1.7052576963726482,0.20381341543812814,0.015330059573647935,-0.03144538837054943
4.644855871,0.2532008149112751,0.12533735874613883,-1.5988360826422645,0.24609860281379878,0.02075633275798442,-0.02334364661004406
4.654855871,0.2281985181366798,0.28440226509416805,-1.4650195841267115,0.2881228614909581,0.026637135717003012,-0.023569760005332646
4.663855871,0.1704219135267266,0.5032076955203344,-1.3247406599878062,0.3210720008528143,0.027860696021653607,-0.03706946812522449
4.672855871,0.07463175466972982,0.7768586119979297,-1.1360991332792953,0.34491052270308875,0.0247746678105161,-0.06250046581399443
4.682855871,-0.09557340792297817,1.0514503680174154,-0.866631404066542,0.35743986980572934,0.015091973921603535,-0.09694438286170651
4.691855871,-0.2535958065277915,1.253569094444504,-0.6449690217746231,0.35676478107052945,1.4448360722436385e-06,-0.12382706905685163
4.701855871,-0.3046714112331977,1.400690751267335,-0.5076563608210701,0.3447381446388135,-0.01985094134465789,-0.13861044693307845
4.711855871,-0.2525099568671956,1.492357046142958,-0.46471019263139607,0.32398374575000194,-0.03834518581925654,-0.14002272874670713
4.720855871,-0.13730305312576596,1.5547601271006202,-0.4542547640568563,0.30014007599535597,-0.051086121243898094,-0.13237759415381659
4.729855871,-0.0031760725006774668,1.6357739697307205,-0.41932606406327405,0.2743119054473323,-0.05759794922485773,-0.11287379531619411
4.739855871,0.07914534397576348,1.7404779978059377,-0.3107690718842464,0.24423345342231353,-0.05973293252348347,-0.08284775732198707
4.748855871,0.08934784256659263,1.8389478202341976,-0.15869177590962646,0.21494200046682707,-0.059560343655176914,-0.051750786630413305
4.757855871,0.10305109658394829,1.9317566432871998,0.00982850834676921,0.18212320141391147,-0.057657961993907166,-0.018053886081361995
4.768855871,0.1652390689231774,2.0060904380113325,0.22935518353741596,0.1411267804133981,-0.05591778969589454,0.021461073390409886
4.776855871,0.270587126027773,1.9986934514919719,0.4081580093114773,0.10869389561809797,-0.05548495435873669,0.05112570070526384
4.786855871,0.3809937876514829,1.946221599072514,0.6234245547838658,0.07003990095592823,-0.05512478593127232,0.08268380379398663
4.795855871,0.4717856410644063,1.8907386008294176,0.8470700668103425,0.032141000511554725,-0.05194078487520226,0.10411825707264685
4.805855871,0.5494466038701917,1.7984829946149357,1.1181919579037258,-0.012283148775023374,-0.046096900855980935,0.11458058384723627
4.815855871,0.61029180354215,1.6426387648744158,1.3368109203164855,-0.05236834111286613,-0.036579313385214904,0.11398291837682435
4.824855871,0.6308017762038,1.453824110243771,1.4551327740143563,-0.0786114170596171,-0.022263744962237125,0.11611799054492433
4.833855871,0.6288175250485706,1.2778156654316286,1.5059138767668903,-0.08938424006913111,-0.0016616672641586285,0.13717313138011025
4.843855871,0.6032467880112433,1.1653083808694544,1.5403964846061755,-0.08208414865901624,0.023746764168444796,0.17924977864300942
4.852855871,0.49839119875632765,1.0946498439756471,1.6450696557538331,-0.0638710527645513,0.04274144187364355,0.21140007334529978
4.862855871,0.3143757023727034,1.0541621087441277,1.8943696063384652,-0.0447519090603879,0.05129489364034069,0.20872544830607442
4.871855871,0.08377061825693434,1.0539948866089943,2.2031881699179765,-0.038922769474189566,0.04455189941690036,0.1665395935648244
4.881855871,-0.16517085445683322,1.0222353251802403,2.4742100292403446,-0.0510275747960897,0.026946312539026473,0.09643676313984219
4.890855871,-0.37694865547552087,0.918235740925979,2.562501844852304,-0.07810317668442235,0.006863401092098527,0.029157359276796805
4.900855871,-0.5320983083863905,0.7635895963189469,2.4773390022190878,-0.11496485828948413,-0.010620112117859888,-0.027401013714591485
4.909855871,-0.5861919036677354,0.6044895126201646,2.275786543964352,-0.14755409353284657,-0.018737190962095723,-0.057715642609768886
4.919855871,-0.5437275730765424,0.44784710216556234,1.9614708978888737,-0.17343313786884504,-0.01468737644044661,-0.058863985026553836
4.928855871,-0.4532348063156931,0.3052924805604942,1.646369002260582,-0.1843312705999643,-0.0016327333456727646,-0.03569220553812879
4.937855871,-0.3470570655264663,0.19646627884784915,1.3393917734824776,-0.18354213245382897,0.018867136938279613,0.005775479379717264
4.947855871,-0.26167858342067624,0.116893082016783,1.0605833240764788,-0.1712304243327041,0.04593464209607037,0.06023172683870788
4.956855871,-0.2593923422888279,0.08948307129257149,0.8875711640740456,-0.15288624069850834,0.06878274492106437,0.10944958576735289
4.966855871,-0.33317057186223326,0.11968424412266768,0.7794053867685503,-0.1324408512517254,0.08949250361685991,0.1520655869197626
4.976855871,-0.427622697172361,0.17589026972339972,0.66772139561484,-0.11412825784228212,0.10909893060725431,0.17797084075862024
4.985855871,-0.5424952597744311,0.23116027740139997,0.5729168724521572,-0.10023981615169547,0.12717463255173106,0.18519809824866143
4.995855871,-0.6773918253430985,0.3145257296063816,0.4928574007978791,-0.08724698280428834,0.14359723042607064,0.17836577645969573
5.004855871,-0.7979505270647982,0.4104591886955885,0.40554438580558816,-0.07606078984654013,0.15348054391001067,0.16224914257291811
5.013855871,-0.8975704089556569,0.5080723147217435,0.30522530930151665,-0.06794330645536137,0.15866726969229658,0.1367082967731001
5.023855871,-0.9691668543060875,0.5765804198068278,0.15191784803766606,-0.062185013086472014,0.15966471110215613,0.0990062855454399
5.033855871,-1.0116606257996361,0.600318721495758,-0.04689471856784441,-0.05892023486795083,0.15528433600824953,0.049804122990887593
5.042855871,-0.9945698380763228,0.6377606518882892,-0.23024952079917516,-0.05715697848612041,0.1481471254472429,-0.001368983599568357
5.051855871,-0.8990145556797429,0.6877325410238575,-0.4100289019382387,-0.058139248918490934,0.14267354117577996,-0.05908231452780907
5.061855871,-0.7388254628173264,0.7616138961107274,-0.6128598074053374,-0.06573793642314459,0.14142794000395306,-0.12353841107681846
5.070855871,-0.5504948873304368,0.824059873886667,-0.7850667867234971,-0.07991941235823921,0.14788269096578174,-0.1742145825565876
5.079855871,-0.3785338626135204,0.7977949241959242,-0.9788849287840464,-0.0986140440661481,0.1592213780385515,-0.21025559081139011
5.090855871,-0.2713250808572928,0.6809358243774262,-1.2364628534677766,-0.12593803875374165,0.17462721127867695,-0.23131523761268163
5.098855871,-0.22091965820291537,0.5247782824754232,-1.4387423424615597,-0.14860579896438006,0.1851591230328688,-0.22959526588740722
5.108855871,-0.2009876301519981,0.3417780363125372,-1.6580210212639332,-0.17126465226412563,0.1939079863100649,-0.21189306775288994
5.117855871,-0.2014990930246292,0.17934105448583337,-1.8535466649540036,-0.1863232683414892,0.19945819043741275,-0.18620680907884649
5.127855871,-0.22102071995218475,0.037199393765805486,-2.044745780241552,-0.19383216407863346,0.20401758107825962,-0.15031933495121813
5.137855871,-0.2302336811630525,-0.05094061805400918,-2.1718990522334827,-0.19216093102727622,0.20736327721251369,-0.10985473740885902
5.146855871,-0.23079362945425874,-0.08852604407229607,-2.2471163551870053,-0.1829451565619717,0.21148360119253895,-0.06936295745276974
5.156855871,-0.24531563128856526,-0.09987206192205705,-2.2966103775207105,-0.1667761217922497,0.2146192267730079,-0.026673457105782204
5.165855871,-0.32513102147421025,-0.10360056569194451,-2.3162243196788985,-0.14672510754698412,0.21679617017289413,0.017075038179820586
5.175855871,-0.5023914034354838,-0.05906729531154445,-2.2805998395154536,-0.1229840610959274,0.21678735581114436,0.0686146792600236
5.184855871,-0.7269823534279722,0.025005351365930156,-2.223472842091604,-0.1029556453021749,0.21277252729440166,0.1183121339816724
5.193855871,-0.9766818555207589,0.10689829151602653,-2.169863061002521,-0.08119526108860198,0.20433429514571597,0.1636365717008701
5.203855871,-1.2061769242489244,0.2353072165906096,-2.049775376635386,-0.05331049855579685,0.18759079610400248,0.19626955229306037
5.212855871,-1.344717508147424,0.3699539071934107,-1.8908144739637622,-0.02776960630488868,0.1631510664264193,0.21359140589148057
5.222855871,-1.4782042345672508,0.4487437629506782,-1.7119412203434363,-0.0013491485817124318,0.12792117888411264,0.21008521525185958
5.232855871,-1.5901759081296885,0.5196055471211243,-1.5245027775679787,0.026785591814576126,0.08512703349870197,0.18915372730570307
5.241855871,-1.5901278531773764,0.5963317787459765,-1.3713385143362409,0.05371815472611193,0.04651247477901391,0.16814075427483
5.250855871,-1.526501655303428,0.6903676018358648,-1.2092041637943245,0.08242640052887248,0.008935085099687792,0.1461123597887965
5.259855871,-1.4718442569118224,0.7921817847178498,-1.0522220663502395,0.11249687734082335,-0.025169661061943804,0.12424572736603266
5.269855871,-1.4153335241821385,0.8981947604809275,-0.8692684285422703,0.1462401188810786,-0.06231891235634599,0.10154490341661299
5.278855871,-1.348018043765758,0.9892839626874068,-0.6666807986622231,0.17333814629345057,-0.09726386307913518,0.08595510874742995
5.288855871,-1.284234113379891,1.0736987565274263,-0.44763858903016474,0.1986435269231973,-0.13613477977869523,0.07215396045575034
5.297855871,-1.229283700577408,1.1399351782882285,-0.25640014573338354,0.22101407226318673,-0.17325727805025382,0.0533944968972277
5.307855871,-1.177863669868825,1.186217412998559,-0.04709972505179315,0.24054683839033741,-0.20777511770168752,0.019268390284631582
5.316855871,-1.116470415026035,1.1593413261887293,0.15519382757469216,0.2563783759298238,-0.23708177932104005,-0.029996517996247772
5.326855871,-1.0327580799746316,1.0953091868202272,0.3767965155624996,0.26930391737827786,-0.26376304653639104,-0.08364158060017698
5.336855871,-0.9136935827953719,1.049375108590637,0.66809805017916,0.2727933692293733,-0.28733600503898826,-0.13103327844030221
5.345855871,-0.774555527587352,1.0253576657460783,0.9846741931547855,0.2613185166817139,-0.3064858322534878,-0.16284727782395586
5.354855871,-0.644027674872501,1.014452065662874,1.306201973569453,0.23433755115658442,-0.321310423887628,-0.1809142219200897
5.364855871,-0.5226004483560923,1.0187951200579979,1.6473226360109992,0.1878014428305955,-0.3334568105217722,-0.189843669422825
5.374855871,-0.4287577703735008,1.0696160210181007,1.9243781499914987,0.1316930451105989,-0.3408031440634335,-0.18108613920491012
5.383855871,-0.34724550340401655,1.1093044363988256,2.0748498109497704,0.08389302043129493,-0.34065366931065993,-0.14587392546276598
5.392855871,-0.23429975551082946,1.1160420785727976,2.159943592007062,0.04186070626202842,-0.3352207697251248,-0.0854438916736397
5.402855871,-0.1406097906603305,1.0751841121529293,2.275976726730757,0.0013482880807247093,-0.3352716275150379,-0.030153995909297304
5.411855871,-0.10206805612796813,1.0182999121390037,2.4562739415703945,-0.035885998660857135,-0.35054709670588163,-0.01228227930525443
5.421855871,-0.0724559843907772,0.9719847837040614,2.6767153444113743,-0.07961801417033533,-0.38202381563491444,-0.020925250797878932
5.430855871,0.053515328680339674,0.9346119774127074,2.7943277159320514,-0.12836892481325676,-0.413453589586661,-0.041613257483604935
5.440855871,0.32654927756483754,0.8511086298673328,2.7624228584295833,-0.19310297669516518,-0.4354137049422226,-0.06737111529409619
5.449855871,0.6412234269371724,0.6692671596874571,2.5788809429879724,-0.2556830012092426,-0.4374495358716707,-0.08934034904888909
5.459855871,0.9512778170509649,0.38875498410872267,2.224960762668544,-0.32198102044451254,-0.4163335738251874,-0.10383444541717696
5.468855871,1.2511405638373774,0.09517630016812481,1.8045957433941051,-0.37038237677566477,-0.37400326471129064,-0.09539878171978797
5.477855871,1.5207305375883897,-0.13756047562142407,1.3614802458201585,-0.40075683759681324,-0.3127924753958542,-0.06224648963973814
5.487855871,1.733920762083438,-0.3157817980151799,0.9457074112195588,-0.41230249440748307,-0.2318345589698197,-0.006563778748074912
5.496855871,1.8662960464249718,-0.4480270429019678,0.6621462123422456,-0.40498348616329727,-0.15384111929405087,0.04828883146358204
5.506855871,1.9084845550023315,-0.5009219676523816,0.5131186630323172,-0.38398251900380487,-0.07945620205069706,0.09317928350993422
5.516855871,1.8751921290498705,-0.5551066052150897,0.47594236518887423,-0.35617406251489747,-0.020449413555205416,0.11650905354259986
5.525855871,1.8069080176671581,-0.5581548631305564,0.5218232937078533,-0.327174686167674,0.025819190771348536,0.10372522031139533
5.534855871,1.7313445645927517,-0.4714268183551908,0.5901953576201667,-0.3032091182465439,0.05968182089746953,0.061183646607250335
5.544855871,1.6758652448812512,-0.4067771663078386,0.5797627742205571,-0.2863872598063102,0.08790963675400407,-0.00018229242999351938
5.553855871,1.6338878033793531,-0.37517086213998174,0.4721593957009161,-0.27909133929218427,0.11124823917889762,-0.060744309659913065
5.563855871,1.5495913615141685,-0.3723433996509853,0.26970309505337653,-0.27919831504346004,0.13483056999312532,-0.12724463076065431
5.572855871,1.4170697877698597,-0.40664041470323375,0.06038451151454442,-0.2825746326954684,0.15185938718176528,-0.1804603320077293
5.582855871,1.231918017791871,-0.4289589816690913,-0.16227688173332114,-0.2854522660730769,0.16506006904236148,-0.22676157305733044
5.591855871,1.0390583791203931,-0.4648931747886466,-0.3611380029089837,-0.28608942892861006,0.17023295589909562,-0.2567857970468109
5.601855871,0.8627427946857216,-0.551973639631099,-0.5935885347069407,-0.28209057703776946,0.1682478695871399,-0.2783973174604255
5.610855871,0.726158352221108,-0.6374092433712939,-0.8011740082824526,-0.27257388065224686,0.1623893753306564,-0.2844152623403036
5.620855871,0.6259715320418805,-0.7187897595879382,-1.0203460488895697,-0.25747208055540005,0.15467883344467526,-0.2738886438005343
5.629855871,0.5395915180998868,-0.8146606404470059,-1.220889620991499,-0.23960417067774095,0.14607048776774612,-0.2513917653928177
5.638855871,0.4178512986185444,-0.9010223962412801,-1.3188489534431516,-0.21888794941366096,0.13861759876408283,-0.221190127243336
5.648855871,0.2652641125658392,-0.9359167884423382,-1.368562211921289,-0.19000568431405968,0.1248330637272445,-0.1835686471937124
5.657855871,0.160297798086376,-0.9338276663817592,-1.4380892568036805,-0.16038063462081456,0.11146363357643402,-0.1494206011026303
5.668855871,0.1121086060959064,-0.9027602245972924,-1.4728857714517023,-0.12043249068579695,0.0983960467691477,-0.11587416997489221
5.676855871,0.10406623803157292,-0.8596114833760823,-1.5085195538544316,-0.08613847414798537,0.0909133487374928,-0.09444944840193474
5.686855871,0.1355179010696178,-0.8063932774174053,-1.5814666591326727,-0.039651438912504944,0.08574837544321465,-0.07298236862139454
5.696855871,0.17206108829435823,-0.7358305702973802,-1.6314567304006502,0.010697542202350094,0.08468296924847502,-0.05682181022827679
5.705855871,0.20194434284645485,-0.6292741238907453,-1.660875038587188,0.05804006396222107,0.08667900395954212,-0.04582579508431842
5.714855871,0.22964845280486645,-0.47614452701669485,-1.6525217866512891,0.10511285520224888,0.0915564767426993,-0.03778917777911439
5.724855871,0.2605905473734996,-0.25303992668903086,-1.5792241383237875,0.15079111090286368,0.09919633448551862,-0.03362951973827609
5.733855871,0.29523452274425754,0.000271731973875311,-1.4601191412887666,0.18511370122921222,0.10785985227121833,-0.03354643277091558
5.743855871,0.33191789434001984,0.268521112812012,-1.3013277375073455,0.21214492438171823,0.11828141978735386,-0.04027122363875677
5.752855871,0.3970633789899427,0.5063174973399492,-1.170018381783919,0.22859680963833073,0.12782901806198052,-0.05364180770921257
5.762855871,0.4475082719115835,0.7182844157845998,-1.035833758064132,0.2389329276258342,0.13762834704082422,-0.07433774851509273
5.771855871,0.4638797543373741,0.8840223367605058,-0.9018705569625757,0.2413585349487006,0.14759276947824787,-0.09478450746752531
5.780855871,0.4522362257536452,0.9837216515588854,-0.7815681723990346,0.2368374513476797,0.15686582637590654,-0.11331545664749532
5.790855871,0.4077671451756991,1.0009219498715771,-0.7010098177290106,0.2255893519703974,0.16587707321885065,-0.1263160111208798
5.799855871,0.3428976108355209,0.9972792260538719,-0.6499528218651355,0.21226567933559973,0.17306393696678313,-0.1284152380063708
5.809855871,0.2582912188433972,1.0190845520244691,-0.5493720578951754,0.19606229581078716,0.1780145134645447,-0.12170802164323673
5.818855871,0.18362627461713854,1.0326451357109594,-0.43481788709259506,0.17953812384390236,0.17952182504995584,-0.109032712177287
5.828855871,0.12054331879837227,1.0248382262480527,-0.33075164629450027,0.1629287674989931,0.17900036618185758,-0.09049432542087019
5.838855871,0.07373996176011566,0.9929298346333318,-0.24625225279874813,0.14956957702880844,0.1769009482673505,-0.06752571411801998
5.847855871,0.0668523102265258,0.9241526336276461,-0.1780266727744948,0.14244307156609895,0.17347503055160057,-0.04181037354548981
5.856855871,0.07168972761684865,0.8521394071941744,-0.10133598148550838,0.1414571423176473,0.16792049105333512,-0.016647016339976752
5.866855871,0.05429127347030434,0.7915451165179583,0.017514857395860558,0.14605709418083426,0.15629883583805437,0.009618741804937393
5.875855871,0.03195605989915343,0.7442743550409513,0.16069649800588257,0.15443862704830252,0.1411070061586933,0.03330527830628409
5.885855871,0.028261620641448396,0.6927207267769049,0.339533672933463,0.16865504828204803,0.12079166544449786,0.05622508497075204
5.895855871,0.010731452353817138,0.6559676389191464,0.5729328644062961,0.18121554600085826,0.09900902173723136,0.06874380236501844
5.904855871,-0.032468228312459047,0.6760823810288087,0.8308384083742572,0.18700317603279124,0.07503838915360042,0.07219060525892579
5.913855871,-0.08882698860576588,0.7175146523486118,1.0713595442898174,0.18317157422005134,0.04920311142262436,0.06753464337807326
5.922855871,-0.13085219124734512,0.7182419512168245,1.2899169846068586,0.1701472703370068,0.024492711195902565,0.059723417583549814
5.932855871,-0.1257263729462359,0.6846101818123393,1.4310723492792425,0.1548719198797365,0.004754910452664392,0.059583896388581144
5.941855871,-0.09234548587822519,0.6531235615114315,1.50900166622956,0.14655961347711213,-0.008297030311358911,0.07721886790319218
5.952855871,-0.08735958130823124,0.6478425884440423,1.5970010721391286,0.1457410096881434,-0.02081281772055721,0.1081632973792186
5.960855871,-0.16666380302209483,0.6498796418950038,1.738879391581904,0.14608294531764404,-0.03340589224413148,0.12331206386699438
5.970855871,-0.3244051489521713,0.6821133315267378,2.017860794065518,0.13710680604665068,-0.05287024255863434,0.11638691647811483
5.979855871,-0.5213651338763098,0.7593905504437111,2.380500963071405,0.10927172592857538,-0.07714097337349068,0.09163538394546691
5.989855871,-0.7132792500161638,0.8057281998964039,2.750321825392744,0.05579163189536954,-0.1070501722017553,0.051978902522645684
5.998855871,-0.854112862105727,0.7699607577169455,2.9490742939088994,-0.01278005367339476,-0.13559637917424908,0.007479104575128956
6.008855871,-0.9087901294913006,0.601187822509025,2.9370235946897285,-0.09510314170240906,-0.1611252150528676,-0.02828709091051835
6.017855871,-0.8663443206924972,0.35513206399961594,2.721475490800811,-0.16811141586772493,-0.174391047928612,-0.038789659376259944
6.027855871,-0.7643703182717541,0.06814778199817262,2.3653499239188047,-0.2301337883903457,-0.1792011954880043,-0.02868842318009599
6.037855871,-0.6354221403504174,-0.2312146590355067,1.968515400228287,-0.2720685128285825,-0.17625550792802083,-0.002575404050364487
6.046855871,-0.5168357960533796,-0.5117625442264574,1.600857172460684,-0.2910960168725823,-0.16499236832216396,0.03266026271818191
6.055855871,-0.4666341508880356,-0.7076406030553847,1.334514505645355,-0.2946845829919788,-0.1497097418079136,0.0732874324906657
6.065855871,-0.5014999932799522,-0.8407885173429412,1.0978371718315694,-0.28878744190885475,-0.13048509167442954,0.11935651013675147
6.074855871,-0.5036344350467966,-0.9357863926074419,0.8545493045461219,-0.2760618995656288,-0.10995845473717006,0.15715241038426261
6.084855871,-0.552604977289052,-0.9713888397080502,0.6724996712861273,-0.2555786599248285,-0.08599651436175419,0.1991330701952715
6.093855871,-0.5921717381886243,-0.9303319406742575,0.5317981360119817,-0.2383963079207462,-0.06554957588347217,0.2267403970142644
6.103855871,-0.6225148921451162,-0.8296047133735059,0.37484192285197093,-0.22047821512244092,-0.041926624291569445,0.24816779799885375
6.112855871,-0.7229194728919333,-0.7232112120108355,0.25074965621437945,-0.1995149664008904,-0.020231434776194285,0.25818957523060715
6.122855871,-0.7710641294348317,-0.5760308735524979,0.07842678734289152,-0.1707545222517247,-0.001995953612764379,0.25166054928964027
6.131855871,-0.7804181391514073,-0.4458005312488702,-0.05725018552387845,-0.14313943288512393,0.007367807683893818,0.23621257824850403
6.140855871,-0.7815054293450308,-0.32176760744304606,-0.18275509947918045,-0.11615440948560105,0.011688947256530625,0.21537978870908253
6.150855871,-0.7798508923507549,-0.2048254142407969,-0.3362735398900515,-0.09312954136644784,0.01241572606415956,0.18865056345564016
6.159855871,-0.7981777048706098,-0.1090175486744938,-0.4538887840563647,-0.08196634022865186,0.008328356344025643,0.16151752232378724
6.169855871,-0.8121310781952678,-0.047729733003186114,-0.5791698720741535,-0.0778176530973209,-0.0006400129696452983,0.1307996145065974
6.179855871,-0.7633640473781637,-0.0330508900099952,-0.7528515746013587,-0.0810994953944536,-0.012762346515373333,0.10327587139260876
6.188855871,-0.6454731904612077,-0.050327471829238794,-0.9739468002299934,-0.08899845793433155,-0.0229334056720847,0.08888020023869367
6.198855871,-0.47165242115914413,-0.09380683284859674,-1.2471502194557451,-0.09915981085220202,-0.03329495267360311,0.08615887388585022
6.207855871,-0.3036680510975077,-0.1478227314905464,-1.4861914154742328,-0.10934047613668466,-0.03940144352544525,0.09299207862426474
6.217855871,-0.14797417486231867,-0.22558776683420292,-1.7361607268339416,-0.1182103907037549,-0.04066922873423496,0.11028443711857294
6.226855871,-0.03202744684690644,-0.3343880209017811,-1.9637459660297194,-0.1204775053837188,-0.03889821955732303,0.13146900303256376
6.235855871,0.03750598325428773,-0.4298075280978446,-2.184470459743014,-0.11451436570435257,-0.03544396671429939,0.1537482274963397
6.245855871,0.07498628905062651,-0.4773858049484241,-2.3917226323645098,-0.09765853401431648,-0.03094951643311919,0.17418449513865153
6.254855871,0.09792772595561856,-0.49988469760860443,-2.5408367613337792,-0.06975396949491848,-0.02711328309720282,0.18575613160211085
6.263855871,0.11453918753873737,-0.47901614831031547,-2.638964684862504,-0.03446637966834059,-0.024209910037146076,0.1891451002457153
6.273855871,0.15310740391542035,-0.4083520645143911,-2.681932691233467,0.01197905229373686,-0.020832334202882503,0.18404382562148247
6.282855871,0.16917176264299766,-0.27762214000549057,-2.635202834671783,0.05532490801041532,-0.018605649400329105,0.17362998953052022
6.292855871,0.15531600419717168,-0.10342728587546154,-2.5081385982361915,0.0991505878271188,-0.01411247817476263,0.1567822420428966
6.302855871,0.11744964256436824,0.09348465247306842,-2.3344293568621666,0.13510681265621668,-0.006589063446553791,0.14026929572089697
6.311855871,0.05037038194387097,0.2698707837694046,-2.1543998226569787,0.1610545933309695,0.00041965243668906134,0.12899753806060504
6.321855871,-0.03797333570385253,0.40816367333707615,-1.987620889806197,0.1823509487902633,0.003598775192351772,0.11929220682930532
6.330855871,-0.1406034524575788,0.5028414106815327,-1.8344902519166497,0.19967463114920106,0.0006638766432092874,0.1061428776851332
6.339855871,-0.25068204301537966,0.5878239582937297,-1.6366694063838299,0.2159652298201234,-0.009037315198149185,0.0849825384292385
6.349855871,-0.37845520180142844,0.681580549513306,-1.3451541646332699,0.23198262186392518,-0.026959451610928574,0.05527814749429735
6.358855871,-0.5086312082056842,0.7734249730452337,-1.050833282556912,0.2444365481763042,-0.049442585618784084,0.0253449108600623
6.368855871,-0.6168024537108046,0.8721658557310084,-0.7500840979964069,0.25654012705954105,-0.07891847705087417,-0.007543530936952789
6.377855871,-0.6986229964029503,0.9790266011564831,-0.495148460831211,0.2650543524046064,-0.1091848554242382,-0.03436796041690818
6.387855871,-0.7389746454497677,1.1004145659733977,-0.22381997158456085,0.269705408714209,-0.14369716927344914,-0.057704969035221945
6.396855871,-0.7220942318059866,1.2226929369200112,-0.0005246098066326466,0.26646407723822646,-0.17374390178304353,-0.07314250320405344
6.406855871,-0.6663045050859514,1.3497036463323429,0.21329811457525397,0.25566894260478246,-0.20327354064856695,-0.08405863931913339
6.416855871,-0.5920402530016878,1.4407194285637903,0.3987565559662623,0.24005415005746608,-0.2286383825561625,-0.08945594045823926
6.425855871,-0.5130025616449897,1.4782509566528181,0.5505382601136575,0.22484487673414197,-0.24778155469062563,-0.09119650772271504
6.434855871,-0.43588765571185084,1.4601926238441214,0.6954063321626193,0.20911772957252295,-0.2647027824016559,-0.09444047074380692
6.443855871,-0.3729752836132866,1.4284374141078924,0.8428674377258247,0.19267447501207963,-0.2820682725972795,-0.1006798626631532
6.453855871,-0.30077514301772856,1.401794358810021,1.0121401032044641,0.17413020565595042,-0.30302020303399896,-0.10949660405277688
6.463855871,-0.20289205693695392,1.3780367616775624,1.1826134734314,0.1530183724968977,-0.32353290239455673,-0.11969179538252323
6.472855871,-0.09204669255325088,1.358035380753303,1.3322683591128919,0.1296246791492397,-0.33840854880921395,-0.12877374322175
6.482855871,0.01678250881384786,1.3300811309024778,1.5019726469431753,0.09643159950449007,-0.3483560442753535,-0.14125876481252272
6.491855871,0.12733386669811397,1.2766871509709306,1.6613131494005933,0.05995260651848778,-0.35024494028522507,-0.15241359516302325
6.501855871,0.24040495362481856,1.1773739261887848,1.797734138903011,0.01896891075167234,-0.34293609946070563,-0.15644458028853736
6.510855871,0.33974176764939856,1.0848144319306385,1.8760348232785993,-0.012720988536921036,-0.3278107799209784,-0.1446901462999421
6.519855871,0.42442327407569097,1.0320901300284853,1.929372637802249,-0.034294501152229616,-0.30717774118632774,-0.11413375203782346
6.530855871,0.5132241593510437,0.9783156418214782,2.0160832015951327,-0.0465422519150885,-0.2811396598331033,-0.06638757839692801
6.538855871,0.6060045991240377,0.9569398429269417,2.1357209402239135,-0.05144228648040719,-0.26610604198092364,-0.04539175852291653
6.548855871,0.7612840620476611,0.9206967309677689,2.3551351700269594,-0.06267727513004119,-0.25899318299040486,-0.06292052239874452
6.557855871,0.9382580723217874,0.9055721724711685,2.5201375143649485,-0.08210106401692358,-0.2591838628486157,-0.1113084332448315
6.567855871,1.1476165171865558,0.8211627943619697,2.52660418660765,-0.11107563162890201,-0.2567383601050522,-0.1771183588374523
6.576855871,1.3591987380674904,0.6542136922327685,2.364644089669668,-0.1401981349210698,-0.24646512168496204,-0.23894933724636241
6.586855871,1.4654886245628276,0.32883620996317325,2.0525498588352487,-0.17001785805828545,-0.22502182551690658,-0.29610286399286606
6.595855871,1.548961974253156,-0.0768503067043966,1.5822949386485772,-0.19219558750933374,-0.1952722606582492,-0.3352397030805577
6.605855871,1.6644582639258148,-0.43984623307644527,0.9876074016450672,-0.19667166431728367,-0.1520463057245314,-0.34639831898247114
6.614855871,1.7358502985054505,-0.7006384909238894,0.4887988095187523,-0.1796875955164426,-0.10507173304467612,-0.32726859133061525
6.624855871,1.8415165542254577,-0.8626219922054341,0.05132710238314196,-0.1405917952209825,-0.05212712099163336,-0.2808194264777721
6.633855871,1.9235838032584944,-0.8986855996320553,-0.19144955297099833,-0.08846027785158399,-0.000301272060149843,-0.2241580945267018
6.643855871,1.920648988135224,-0.7915573161687919,-0.2079881191001868,-0.028268880929157504,0.0514526036067596,-0.1641665980146619
6.652855871,1.8140787709147106,-0.5955180770353147,-0.07716506842457667,0.018312864465635438,0.0925619386531966,-0.12016772181374079
6.662855871,1.6574640518954646,-0.3753520089292732,0.07493635074851851,0.04600850285100849,0.12435704052722875,-0.10099637626832789
6.671855871,1.4902018782968318,-0.16877239066872424,0.15446256822735038,0.053418589432921555,0.14136500242969868,-0.10567351550258615
6.680855871,1.326500347517233,0.010596083930437858,0.11432551084921463,0.04686592366043871,0.14691862955398483,-0.1331724212572598
6.690855871,1.215437427880615,0.141721197683777,-0.06909684802040508,0.031157254863699965,0.1448201021949062,-0.18335303670984784
6.699855871,1.131497646244789,0.23070162988297532,-0.30113628925827085,0.00977442589194262,0.13906478942762518,-0.24059178881077964
6.709855871,1.0537733961674538,0.2836152810288738,-0.5551169084647468,-0.018274710616612233,0.12872890483856772,-0.29818085770441227
6.718855871,0.9689367813438317,0.316186026761809,-0.7873197497957929,-0.046815470148851915,0.11416077704602301,-0.3373148361035449
6.728855871,0.8456470231521329,0.3420554414416479,-1.0147513776150703,-0.0796124605652367,0.09344102300979096,-0.36328362514360085
6.737855871,0.7033321933573369,0.3257814746543387,-1.1729366199279665,-0.10869184994315248,0.07135488625928259,-0.37407231373273175
6.747855871,0.5714040500482666,0.2633288753413222,-1.3377649026800795,-0.1355486795975188,0.041804576062901146,-0.3801916851070614
6.757855871,0.46239679028759384,0.19073668011135664,-1.5462580689083012,-0.1503059585814144,0.015869561377220676,-0.37387875364238365
6.766855871,0.3857934109608133,0.12359013648088261,-1.736646890011783,-0.15413349306946003,-0.00619095101769555,-0.36160474009463045
6.775855871,0.3331507115659568,0.05866101200036934,-1.8842996416153812,-0.14892464229224522,-0.020668374062921966,-0.34447370416765444
6.785855871,0.3184595416450238,-0.008950233136050534,-2.0324081916620145,-0.13202236472031617,-0.027783994669691576,-0.321420902423045
6.794855871,0.31691414529582473,-0.06973451723850616,-2.134690567668116,-0.10856520949850179,-0.02895685752815217,-0.298001270612053
6.803855871,0.31926736911747117,-0.13391299500146614,-2.230363222168469,-0.07680724342691021,-0.027327972625527393,-0.27338173582927194
6.813855871,0.3497449260248259,-0.19279121450454023,-2.2960159730819703,-0.03558732379378984,-0.02524080232089316,-0.24437820723830245
6.823855871,0.38461978767042204,-0.23366343783057242,-2.3167120035282234,0.012561426603767589,-0.024400709902618903,-0.2094446753138763
6.832855871,0.40999484241891876,-0.23786341343806697,-2.3366306979971023,0.0625966528530677,-0.024921517085957988,-0.17566067289724596
6.841855871,0.4300079449642462,-0.20142021346464012,-2.323266392108426,0.11432828028240721,-0.02479940700092574,-0.14778204710435822
6.851855871,0.44293163542988845,-0.15958288738282023,-2.2552897250227657,0.17168955244451822,-0.02617410836776395,-0.12129340780837453
6.860855871,0.4713426116431801,-0.14155751886386703,-2.182440931341509,0.2280755786608176,-0.02866117712959712,-0.0979118863337643
6.870855871,0.5120713550673772,-0.11344325405001565,-2.1065266358430383,0.28979499378692686,-0.03094446648638213,-0.07217969821128581
6.879855871,0.5273784928624466,-0.018752896852236023,-1.975398612975871,0.34686557499372905,-0.031045578806794073,-0.05228638174797872
6.889855871,0.4757305044886967,0.15349329926472255,-1.746948855798072,0.39812884657012615,-0.029984026511265464,-0.03813036700120045
6.898855871,0.3318654498289718,0.41010463502276695,-1.440076261869757,0.43436800425939964,-0.028600703306833293,-0.03261794402369194
6.905895832,0.1321195335557371,0.6850275094887153,-1.1483898294755133,0.4538244538985622,-0.02814395336956027,-0.03625045892771459
6.914895832,-0.04544219768850516,0.9944071221510797,-0.7463089942790407,0.46520651719414424,-0.02723382068104408,-0.050201609676837435
6.924895832,-0.0747909139909575,1.3670072517467478,-0.27439548539432784,0.45849569244950217,-0.021607878067130635,-0.06917943742171037
6.933895832,0.0039284734848912956,1.6255832404025565,0.03144032859713634,0.43802566294761724,-0.012835224898306598,-0.08188036429193217
6.943895832,0.10546857111434149,1.7559202591591856,0.21696945432841722,0.4027784172758617,-0.0017257801135288546,-0.08504923649303096
6.952895832,0.24217350831400952,1.8259113295258453,0.329864940103989,0.3618496116742471,0.007854280046645354,-0.06631358926971397
6.962895832,0.39722017465422277,1.8277186095469846,0.41428416604480356,0.31040358334195917,0.016948595258897022,-0.021137738158579406
6.971895832,0.5678842809980899,1.8100755881498818,0.49030460030164275,0.2601504948134079,0.027498983199747626,0.0409404449003275
6.981895832,0.760251436048816,1.783060743804937,0.5609975097497146,0.20922255531308162,0.04270445569418385,0.1165915555081429
6.991895832,0.9485449744945968,1.7185692751252912,0.5965799481009486,0.16520562938776082,0.06263887954915799,0.19016826714021218
7.000895832,1.1271021651865623,1.645971255097368,0.672614618863729,0.1341219107867672,0.08717408474634587,0.2514434581882937
7.009895832,1.2920953423444834,1.5401589010831196,0.7784867884894936,0.11293372360411749,0.11440642470510484,0.29841229542780223
7.019895832,1.4166646135971255,1.376767780287371,0.9006334524220132,0.0983784640417883,0.1447658938315832,0.3313477441178206
7.028895832,1.4731861111398923,1.2576919821812145,1.0738557851274273,0.08877026615307804,0.1695145874136554,0.34376657372962305
7.037895832,1.4473201367777953,1.183429127038612,1.2789217039920167,0.07810049528118407,0.19167879925127376,0.3379606324021789
7.048895832,1.3567751621828645,1.1363468861153514,1.484792269881861,0.06513646815960684,0.2123852154592504,0.3134587738533886
7.057895832,1.245907623633312,1.1179892992022804,1.6307994321233372,0.058195384621177584,0.2261324156159097,0.28784829985073096
7.066895832,1.1055196004669778,1.1367113572396916,1.79750913429244,0.05303668790376476,0.23362290448226675,0.2561465924466504
7.076895832,0.9393757867015481,1.215477061933372,2.077896494840567,0.04302115889344586,0.22650145386006396,0.20723915015645275
7.085895832,0.7469538376271703,1.3468089177549827,2.501330419795423,0.016241177166660677,0.20422934198410067,0.14790156371351526
7.094895832,0.5370011617418806,1.4409342641439828,2.9826264113199743,-0.03586673111682358,0.17222470517664726,0.08864317032788774
7.104895832,0.3966504982256555,1.3752978157539588,3.371200737714681,-0.12091309976670109,0.13385504444165755,0.042744711492756424
7.113895832,0.32149280299991084,1.2161916189835371,3.5108531384863593,-0.21633011652192788,0.10311413162946939,0.017710347745914273
7.123895832,0.2094522951506952,0.9528576454292308,3.4164828069065134,-0.3218738888915107,0.08296722160978534,0.002074180346156561
7.132895832,0.10435172190046121,0.6194293370582888,3.1574324705195127,-0.4038220857310555,0.07705277984854891,-0.004970431224338411
7.142895832,0.09949783207455823,0.25140004593913123,2.76432614394532,-0.4644832936217325,0.08422093411239916,-6.94411799628595e-05
7.151895832,0.1431539876570272,-0.057831566375204035,2.349912989419283,-0.49885072666814334,0.10233535894478385,0.01659050210725085
7.161895832,0.18469092144389418,-0.33503771934412224,1.9566798976326054,-0.5110886917122388,0.12701223225774455,0.03987904984189445
7.170895832,0.2130643631224724,-0.546508568484532,1.6658334505930477,-0.505284312883852,0.1504840001079645,0.06164487572081637
7.180895832,0.20973536660980632,-0.6660404903953345,1.4577254881228439,-0.4869099398500981,0.17490421532756922,0.08149774894906006
7.189895832,0.21675509686453287,-0.7456032009510111,1.2831783050574983,-0.46407622400973797,0.1952794078887636,0.09299719572896029
7.199895832,0.18868636470631123,-0.8192109734362173,1.0524099534711413,-0.43737453553858774,0.2149697119201368,0.09733835617825533
7.208895832,0.03891154921376794,-0.8273739177246409,0.8775043874406239,-0.4131900703770186,0.23267442089840223,0.09742336706524463
7.217895832,-0.14742831890825878,-0.8110252865959251,0.7121708163272291,-0.39251182867784506,0.25046500807284616,0.09391485947049444
7.227895832,-0.26833518330558576,-0.8150190321953206,0.4622893902955483,-0.37467402836512376,0.27114027889447095,0.08590615084444125
7.236895832,-0.3515105504722332,-0.835626874445578,0.20636557460299323,-0.36013776960944954,0.2927588973379508,0.08030209599923642
7.247895832,-0.4125699690916557,-0.843366139961535,-0.06470438505165224,-0.34348236566843415,0.32044229777987815,0.08235940841085662
7.255895832,-0.4794146378964828,-0.8491677780790436,-0.28157249566189124,-0.3298467672926092,0.3404145216779497,0.08925422336554488
7.265895832,-0.5416526603717058,-0.8386046569549923,-0.5405230919885824,-0.3116820959175374,0.35963170455481697,0.09568523911829517
7.275895832,-0.5931624594567177,-0.8040637140154602,-0.7676399922562871,-0.2924886846306765,0.37311045447522023,0.097867414442878
7.284895832,-0.635862565112799,-0.77972232188774,-0.9498086040996055,-0.27360016905064755,0.37936792696787847,0.1002353498469083
7.293895832,-0.6543595898185633,-0.7668857290156283,-1.117286431831885,-0.2568857615879457,0.38023988409653603,0.10458357082984157
7.303895832,-0.6522602410682455,-0.7608214630195822,-1.3118318247749798,-0.24172904311850593,0.375660658963212,0.11324827669818398
7.312895832,-0.6407152498793912,-0.7544441730923023,-1.5077311027427296,-0.22747972358302576,0.36352076757684915,0.1290676999187667
7.322895832,-0.6372107979881283,-0.7411497775849152,-1.6814683527256333,-0.21436975758129764,0.34657227296999815,0.14528963050362878
7.331895832,-0.6523153354468271,-0.7323849149835713,-1.8246203849946105,-0.20438327809628518,0.32632122704182187,0.15238192810099246
7.341895832,-0.6847300895950911,-0.7456811607141284,-1.9601733940277501,-0.1927149694237315,0.29778707915856656,0.15132176976466546
7.350895832,-0.7377663030427883,-0.7526603537812686,-2.060595514903731,-0.18057807629512634,0.2653912103345039,0.14523841724487832
7.360895832,-0.7859962097859181,-0.7409360939459867,-2.178643661219299,-0.16364581735194372,0.22752267456621378,0.1358656797901876
7.369895832,-0.7991182504655425,-0.7290107406460576,-2.284901192532632,-0.14302104668661464,0.19262150107028764,0.12793250539798895
7.379895832,-0.7963776000412778,-0.6849215782073417,-2.38219015096455,-0.11438535155468213,0.1523220606322001,0.1197302765254063
7.388895832,-0.7865200591847251,-0.6298142562377699,-2.4302584536947114,-0.08500509964540626,0.11634614765017028,0.11166169030994727
7.398895832,-0.7644393655042805,-0.5412789056075284,-2.4213702605657117,-0.05324926715482281,0.08094181812953717,0.1059021735403473
7.407895832,-0.7540046174551217,-0.41944574296373427,-2.331630735380897,-0.023926819257446715,0.04936525755471512,0.10587812156603116
7.417895832,-0.7651969475601209,-0.2897402034885259,-2.1658590338102064,-0.0009805330273669,0.02183862843240046,0.11074506115022013
7.426895832,-0.8322594503804689,-0.1771173136152856,-1.9540030981936012,0.013766447979452333,-0.00425647690861008,0.11299201291321623
7.435895832,-0.9691219155461831,-0.06289663372360275,-1.7063835953577002,0.019922432783481936,-0.031054130754895347,0.11415298591352652
7.445895832,-1.0885683991654342,0.0018067518755182227,-1.4397343905777096,0.01952532944460551,-0.06614659456972098,0.11618479829240747
7.454895832,-1.1590817488852658,4.224927704380051e-05,-1.242623801426753,0.014808530604865647,-0.10366702749472327,0.12262765140511948
7.464895832,-1.2022511774367348,-0.02549076444364973,-1.0923329350060758,0.00947082149886894,-0.1425028824051594,0.13665543185679896
7.473895832,-1.1934688238316593,-0.06636760471771593,-0.9888829486780584,0.00575051230630646,-0.17488002426865942,0.1535136691572899
7.483895832,-1.1385424002082611,-0.10942016673604175,-0.8891973530807815,0.0055722899286876956,-0.20019261563343818,0.17421003901785906
7.492895832,-1.055200209282107,-0.12401381965856739,-0.7807201360938861,0.008326547951389818,-0.2148460531124905,0.19164360718644857
7.502895832,-0.9439936499766232,-0.11459766707682326,-0.6480858323087759,0.014511541512705369,-0.22205093698236242,0.2096993521835229
7.512895832,-0.8159014244766642,-0.08499616323780801,-0.5397172863360409,0.02364158633003757,-0.21829422187855135,0.23293165526015322
7.521895832,-0.681313127445924,-0.04269036839746301,-0.44310965642811145,0.03373794870519228,-0.20577872346392423,0.2587975534902225
7.530895832,-0.5787724066816072,-0.010332537548178533,-0.3243446560037449,0.046805628849261455,-0.18603503859547374,0.2829108361484112
7.539895832,-0.5036047373066967,0.03092812860085259,-0.17270403245445642,0.06253588878925076,-0.16213286497946963,0.2996040661836755
7.549895832,-0.43813387776907053,0.10251472615923926,0.02956205369313742,0.08147362011640574,-0.13607580389425833,0.30474248250122377
7.558895832,-0.39116264815041624,0.18833073820787824,0.2376288562590677,0.099125694476033,-0.11463948324255148,0.2996435409911927
7.569895832,-0.38007876764593174,0.296731209096182,0.5392062554286364,0.11815606709062594,-0.09412648728436318,0.2812315668395424
7.577895832,-0.37622035092852646,0.3881729600292411,0.8011064901176123,0.12598015521623082,-0.08578968460653714,0.2591159528997398
7.587895832,-0.35752610338252677,0.4621360525473115,1.117813258283149,0.12610759091919674,-0.08175452234427347,0.22865145847509669
7.597895832,-0.3346933850056842,0.4991612724366567,1.4008687573028564,0.1161047537573476,-0.08308741389699685,0.19506073261869236
7.606895832,-0.2715362314332023,0.49064594987992766,1.6057133864132112,0.10009934483547088,-0.08617456837447429,0.16464852658272383
7.615895832,-0.17447312121496403,0.48502994676235517,1.7160979278549857,0.0839428494792428,-0.08842780604929046,0.14526057784849244
7.625895832,-0.06589555088656639,0.5047477841824362,1.782616512571681,0.06924126202342556,-0.08805783178999889,0.14010103896020407
7.634895832,0.036279014791347555,0.5288105995589633,1.8832364827476904,0.05483418990410511,-0.09046204081936235,0.13492249129379688
7.644895832,0.09806946870069473,0.554814051946121,2.0926167857091675,0.03162534603048,-0.10315777632714712,0.11021681730660615
7.654895832,0.12545184769573975,0.585346989339437,2.3751264140586423,-0.008607085943186338,-0.12793649366309787,0.06309050818179031
7.663895832,0.18507374442539065,0.5808592970091844,2.562700514281564,-0.059771762080159774,-0.15390139858123814,0.01076168573482825
7.672895832,0.35092798641506673,0.5341046228968244,2.6155487045378782,-0.12134369732894566,-0.17438165443102757,-0.0427117773087845
7.682895832,0.5841937820313271,0.426287544685746,2.549456320513802,-0.1892035062170625,-0.18205564208170744,-0.0937453846076363
7.691895832,0.7984787086842955,0.2401552634984988,2.417057005583426,-0.24929704431405975,-0.17522860928283773,-0.13308398793621232
7.701895832,0.9241784584242694,-0.053209547330628326,2.198195094704656,-0.3037232328958429,-0.15423889155990209,-0.1568986598792907
7.710895832,1.0314342558690348,-0.39562343950842077,1.8838632061775635,-0.3358434074978637,-0.1262968715652576,-0.15316585267553848
7.720895832,1.237714790800033,-0.7368033236398519,1.403255060039708,-0.34869475189327315,-0.08703061234729925,-0.13204902773859956
7.729895832,1.4573685001111254,-0.9596986354578255,0.9921934217555252,-0.3372882565646099,-0.04346469893537678,-0.09868836286067592
7.739895832,1.6122086202334842,-1.0863990333070364,0.6901852826495052,-0.30250014523897,0.009131846476267028,-0.0491855752625729
7.748895832,1.6794196526120628,-1.1360317533559043,0.569045561210715,-0.2589329002241915,0.05565522689345839,-0.004851480444930332
7.757895832,1.7608335414764604,-1.1081763824402076,0.6074517811055424,-0.20542478462134928,0.10372942317916664,0.021584621733081514
7.768895832,1.8167289172744419,-0.9507288463985777,0.7833634964864287,-0.13825066433896502,0.15304046473276256,0.02656726340903317
7.776895832,1.8386841445154265,-0.7832018904462164,0.928018602670641,-0.09310827896530002,0.1822541225172704,0.008279459281079059
7.786895832,1.8761400617843356,-0.6447325070870678,1.0664486404932956,-0.052648106929467524,0.20689229529586942,-0.04150638329126009
7.795895832,1.801438807058396,-0.6104790260937902,1.1542840280982425,-0.030272079486129606,0.2161544256580912,-0.11987499041711783
7.805895832,1.565703261579575,-0.6993243781990546,1.2050120856224995,-0.02368153830301792,0.20481524716980815,-0.23322556970992359
7.814895832,1.3209213072678732,-0.8078325156024335,1.1684991063791828,-0.029272014850415966,0.1770316368617803,-0.35089400788487135
7.824895832,1.1991401257672167,-0.8490851738886502,0.993873716329645,-0.04135741063362315,0.13876161776514534,-0.474495515622586
7.833895832,1.2143453095155552,-0.8064837230944776,0.7261084667944027,-0.05461315561401048,0.10179730083497292,-0.581990059876509
7.843895832,1.264226836610542,-0.7014087765191201,0.38347637462329565,-0.07013396618902616,0.07026505208960604,-0.6710392331442703
7.852895832,1.279561614120278,-0.6196050038250953,0.026398141368226845,-0.08576849211247842,0.05130522306925524,-0.7215693499368292
7.862895832,1.238491492642913,-0.5528469994149219,-0.392685919017987,-0.10445459048313974,0.04554382568909067,-0.7390338733860563
7.871895832,1.1418264528028037,-0.48874972339499906,-0.7817483266064699,-0.12369999929706157,0.049846379995352026,-0.7214822589607242
7.881895832,1.007339157491829,-0.48389526406108857,-1.2012777729402098,-0.1452944157211117,0.05885607993575698,-0.6742049933297871
7.890895832,0.8588254353419145,-0.548369419939928,-1.5678551913743977,-0.15906393212411657,0.06398891862566447,-0.6175190242385381
7.899895832,0.710863037562569,-0.6409661804684919,-1.8977123438833483,-0.16228510674818897,0.06456324739947261,-0.5595219093988945
7.909895832,0.5905131017147625,-0.7308234991521566,-2.2301000573637646,-0.15166238090069858,0.06159496492000931,-0.49822167011332685
7.918895832,0.510300760219611,-0.8015713126093288,-2.4733140041001906,-0.12748374982262806,0.0556902728405464,-0.44864213859557156
7.928895832,0.44911098805652777,-0.8401948763823772,-2.67942513637857,-0.0885518651852856,0.04665928152856516,-0.4050471512072729
7.938895832,0.3910330702176096,-0.8113245694379484,-2.8378727930872483,-0.039817838774775495,0.0380461817408627,-0.37086172570585785
7.947895832,0.32095581176220306,-0.7336130709885818,-2.926356212845692,0.00625195146745311,0.03238856422842574,-0.35063649534194175
7.956895832,0.2375998706713543,-0.6161585238434467,-2.976725471514924,0.052969758602981955,0.02780375707780765,-0.3410839486614352
7.966895832,0.15527316300065594,-0.46747417618059095,-2.9881430877819892,0.10676725213803337,0.020591601276102198,-0.34082964712877256
7.975895832,0.06156906381142026,-0.3364754884313442,-2.935127294862207,0.15444193502390016,0.009459537608145458,-0.3474537381741719
7.985895832,-0.018218153008457985,-0.22170075760383995,-2.822654709583123,0.20461329784123355,-0.0074236955782363626,-0.35930837894091927
7.995895832,-0.03125223448449077,-0.13973421525588098,-2.7060792767880217,0.25071456550996574,-0.023712889619986723,-0.37401918422235764
8.004895832,0.0166537197398101,-0.0729889336659088,-2.5884854179017456,0.2916160754289513,-0.034665073984367197,-0.3875306015780596
8.013895832,0.09122184274782622,0.01345606962549356,-2.434953076080808,0.331625566551213,-0.03849631455663393,-0.39854067315819247
8.023895832,0.15896453155739043,0.14078037933956955,-2.2327382977793433,0.3675875332721141,-0.034247933484631544,-0.40588752716571513
8.032895832,0.17797005915262532,0.29196463150364355,-2.0178132150861914,0.3939294526590278,-0.026055720087656466,-0.4067145273968487
8.041895832,0.10821022482261503,0.4575614991188067,-1.7583072880689827,0.41113143339194125,-0.015326640482762489,-0.401403805832834
8.052895832,0.00027720917670605305,0.6477769124770266,-1.388218460431176,0.4177598709649118,-0.0028396409759087046,-0.3837987503714253
8.060895832,-0.08482268300065322,0.788966858359001,-1.1158674095765364,0.41273036040951877,0.005406743315791973,-0.3632083217728713
8.070895832,-0.16453672209014872,0.9212048026025027,-0.7791592017730866,0.3947358025974706,0.012400719735584398,-0.3330403560414817
8.080895832,-0.22006138565899092,1.0307717596069987,-0.4092245288072293,0.36416581278652715,0.018439785777916592,-0.3007320241429941
8.089895832,-0.21825920627169795,1.0876240303429128,-0.1448221141823232,0.32944489234599306,0.024828901942855718,-0.2685306840011075
8.098895832,-0.16561295758568573,1.1248086665603785,0.02385014136245599,0.2927072567805968,0.03570749666514159,-0.2301669288258672
8.108895832,-0.11777083169394793,1.1455010307260247,0.2180933876551711,0.25307651253342683,0.05090797028419739,-0.18213018250670804
8.117895832,-0.13548418293691888,1.1416866085407784,0.4639215478530219,0.21643586496201422,0.06485219233870995,-0.13278651145697254
8.127895832,-0.22278271596922655,1.1099818497676655,0.7468324210293298,0.18379418848080795,0.07509030328184449,-0.08154729558309462
8.136895832,-0.3446983103447453,1.0565350864756444,1.0683856084484389,0.15463650916305058,0.07978762864675246,-0.04096043473757323
8.146895832,-0.49013592985978816,1.0154740779891005,1.4691709032995552,0.1255273334084874,0.07521690093348904,-0.0168214678309146
8.155895832,-0.6302529322563378,0.9621924678927664,1.864875005558371,0.09597348020061659,0.06062930857833605,-0.01336666028776744
8.165895832,-0.7389165810486737,0.8438308426436555,2.2096745598232785,0.06160383133593001,0.03651045611606711,-0.028437769568468566
8.174895832,-0.7612036290647847,0.6941260487000446,2.3835742786262437,0.03656678884667434,0.012850044213263535,-0.048189021958339885
8.184895832,-0.7469249183965732,0.5618023436727231,2.484545650026804,0.01896149875602002,-0.013686556347425417,-0.06712555644046006
8.193895832,-0.7544957652739549,0.4829438407543246,2.5788483745501996,0.012677583534413107,-0.03736685935515421,-0.0807063885075646
8.203895832,-0.8162013832660235,0.3892472083474068,2.7494932995127646,0.011255911534416877,-0.06356251496144474,-0.0954603811058183
8.212895832,-0.9437827841756412,0.27996509670345265,2.997155584316959,0.005876579099805498,-0.08917341750315726,-0.11407997622791456
8.221895832,-1.1027646553583617,0.14304892702664018,3.2077592762918377,-0.008207907487976767,-0.11409026508560544,-0.13057151403492812
8.231895832,-1.2326348891118408,0.020406563110299036,3.3656522790951455,-0.03316305715503977,-0.13362823689420916,-0.15141755958000386
8.241895832,-1.304006251482353,-0.12417879436308285,3.376449692173128,-0.061177010954601346,-0.14351264174420647,-0.1668004882306514
8.250895832,-1.3623272195470306,-0.3539939007134364,3.212373595049584,-0.08718831965211919,-0.1448597042498454,-0.17775065428134618
8.260895832,-1.354670461306416,-0.6694663389939961,2.887856678364744,-0.10757603130234408,-0.13964903963454925,-0.1809395081612078
8.269895832,-1.257823666516228,-1.0058803244498795,2.428814091916121,-0.11252444445381773,-0.13150389985208322,-0.17090065091219475
8.278895832,-1.130104586409851,-1.325574505277189,1.8821679481792692,-0.09932175659552996,-0.11945991634546815,-0.14083949502444287
8.289895832,-0.9807027728236771,-1.6140028761269516,1.1953073823125164,-0.060239195020817315,-0.10275191058376654,-0.08145961205370672
8.297895832,-0.846587720667337,-1.7676972416344026,0.732641548955598,-0.013549136480198863,-0.08718327593956932,-0.02009550665888501
8.307895832,-0.738960234211965,-1.8043614770374374,0.3662013013594178,0.04680990180586673,-0.0700690350396068,0.06000997139275116
8.317895832,-0.6899782881845337,-1.7170626209486026,0.14123343111373884,0.11051769986766159,-0.0523923141301745,0.14971583164525837
8.326895832,-0.7059261798023346,-1.5329318720992493,0.05513959854339531,0.1627699858895037,-0.03463766850147937,0.23533415399874957
8.335895832,-0.7591727268020902,-1.2941548420083826,0.042357464799878425,0.20567663491024063,-0.014651817593275034,0.3199526570047912
8.345895832,-0.8317879762987509,-1.0143060070750385,0.05793305744181727,0.23517770498094395,0.008961437764764331,0.39966246822739127
8.354895832,-0.9316937188119503,-0.7148234828196973,0.1332303259002471,0.24524838128637477,0.03594139379977139,0.46667343995702726
8.364895832,-1.0451317739010686,-0.4026652949170938,0.276515356887156,0.23516676811707543,0.06805963683044312,0.5304811967117729
8.374895832,-1.1394449580678532,-0.12830957274258736,0.4138570582887673,0.2025382408502405,0.10264571685936931,0.5831147335115313
8.383895832,-1.2505165639842621,0.04263187102163041,0.48539536763051583,0.1536757877397081,0.1366938642793583,0.6251399009577894
8.392895832,-1.3763624888478472,0.07165000888948242,0.45561878017466284,0.09396371762641612,0.16563810863898112,0.662096643994074
8.402895832,-1.4869391467986681,-0.05226284530477021,0.27624997876269797,0.028565765158841277,0.18302558977231567,0.6966030732748923
8.411895832,-1.5410924100981733,-0.24067167366775077,-0.02506592364460011,-0.02526941013646949,0.18397209189258576,0.7211202941842183
8.420895832,-1.5258960606283059,-0.4333524878484328,-0.37854250836228837,-0.06486941997942366,0.17292330837368045,0.7374317078848105
8.431895832,-1.4517753427619544,-0.6354052323659558,-0.8117462593627457,-0.09558425403885529,0.14854360285339363,0.7466396782506539
8.440895832,-1.357261376589936,-0.7798259804262838,-1.1453819827941214,-0.10809507987481193,0.12302105213448483,0.7474989682736859
8.449895832,-1.2322278443162502,-0.8820350775308063,-1.4769674142674056,-0.11082490440525869,0.09469642690272385,0.7464245996699084
8.459895832,-1.0870840953480356,-0.9554864203307546,-1.8053087235457066,-0.10223272591484298,0.06386468164145796,0.7401756313578844
8.468895832,-0.9422943467958814,-1.0143506454643147,-2.0564184293336445,-0.08453673093653848,0.037018588178104515,0.7279762681920773
8.477895832,-0.8100173315527077,-1.0357560837156967,-2.2613802942872,-0.06071876893371324,0.010648405061880842,0.7139754074858933
8.487895832,-0.6830356554297297,-1.0146195010027133,-2.4452511353999764,-0.031991906363786855,-0.014041543237876972,0.7057732391946934
8.496895832,-0.5587827054963169,-0.9574817792574339,-2.5923689234480314,-0.0036235363320817307,-0.0328979553303171,0.7060651947230911
8.506895832,-0.4244934394962709,-0.8607539055461364,-2.721367406602762,0.029419850209811436,-0.048554028683534076,0.71606317711301
8.515895832,-0.2770216978953801,-0.7118443258708096,-2.818211248407937,0.058016591218066134,-0.05482751712209567,0.7329784445529888
8.525895832,-0.11129047288303061,-0.5034669822866088,-2.888821713810757,0.08775785157357473,-0.053957987827756536,0.7588379048019426
8.534895832,0.01793685071416333,-0.2854148069504198,-2.910514490463062,0.11361227908968118,-0.0490277180390561,0.7879743257975027
8.544895832,0.10280859891020908,-0.03868123653637137,-2.886629743438834,0.14211055058231298,-0.0434081738069913,0.8135776615681942
8.553895832,0.1307318820632362,0.20118451865999737,-2.8063268648966138,0.16772938694057268,-0.04205664215805033,0.8170249713917489
8.563895832,0.12543476669452738,0.429149100278584,-2.6542603323492964,0.19477882828767357,-0.04696671652500496,0.7974198214848915
8.573895832,0.11232166116060267,0.6399363597435995,-2.4363038751711983,0.22058237976244405,-0.05856093465391657,0.752896280797397
8.581895832,0.1110136527035982,0.8141755063023082,-2.222344212299119,0.2392023723163475,-0.07237754412495921,0.696914597174134
8.591895832,0.14794778348639315,1.0283635727015046,-1.9584059265772593,0.25733222267676215,-0.08870061853000213,0.6167961593181339
8.601895832,0.21107889712911282,1.309094810437156,-1.6371641607119047,0.27134283646243024,-0.10051397167581536,0.5154719281374327
8.610895832,0.2945479919177121,1.5990973142438394,-1.2864043063031865,0.2799617493220509,-0.10422812379518624,0.40180763715841916
8.619895832,0.4085794496196622,1.8679309129057748,-0.9442688562827629,0.2840007117433773,-0.10243192959527248,0.27765286156344215
8.629895832,0.5173224457988241,2.080932849328156,-0.615359363222232,0.28249110865757493,-0.09603000743853009,0.14479926441004304
8.638895832,0.6105399266414293,2.192508799514886,-0.36947781282005504,0.27384070838771196,-0.08640302398899427,0.03256885806491549
8.648895832,0.7188760043177498,2.2127564340572823,-0.1575817642060246,0.25947675206618265,-0.07106344187012731,-0.07202337938521497
8.657895832,0.842328218285919,2.191299156204024,0.02366388652397054,0.2428317599968804,-0.05322454921542273,-0.142298187520811
