t,gx,gy,gz,ax,ay,az
1689018012807085111,-0.03195793181657791,0.14913702011108398,0.1949433982372284,0.06703764945268631,-0.4692635238170624,10.010157585144043
1689018012817085111,-0.03195793181657791,0.15446333587169647,0.1992044448852539,-0.06584054231643677,-0.4836287498474121,9.976638793945312
1689018012826085111,-0.02876213937997818,0.15978966653347015,0.19281286001205444,-0.23582886159420013,-0.47884032130241394,9.959878921508789
1689018012835085111,-0.02556634694337845,0.1619201898574829,0.1768338978290558,-0.386663556098938,-0.45489832758903503,9.928753852844238
1689018012846085111,-0.02130528911948204,0.1619201898574829,0.15552860498428345,-0.5279214382171631,-0.42018237709999084,9.907206535339355
1689018012854085111,-0.01810949482023716,0.15659387409687042,0.12889699637889862,-0.6859387755393982,-0.40701428055763245,9.911994934082031
1689018012864085111,-0.015978965908288956,0.148071750998497,0.09800432622432709,-0.8092401623725891,-0.42616790533065796,9.933542251586914
1689018012873085111,-0.013848437927663326,0.13741911947727203,0.07030745595693588,-0.8451532125473022,-0.47165772318840027,9.920374870300293
1689018012883085111,-0.01065264455974102,0.12676647305488586,0.049002163112163544,-0.8200140595436096,-0.44173020124435425,9.917980194091797
1689018012893085111,-0.006391586735844612,0.11824434995651245,0.026631610468029976,-0.8152256608009338,-0.365115761756897,9.93593692779541
1689018012902085111,-0.003195793367922306,0.10333064943552017,0.01065264455974102,-0.8451532125473022,-0.32680851221084595,9.955090522766113
1689018012911085111,-0.003195793367922306,0.08309062570333481,0.004261057823896408,-0.8607155084609985,-0.27892449498176575,9.995792388916016
1689018012921085111,-0.004261057823896408,0.05965480953454971,0.004261057823896408,-0.8523358106613159,-0.264559268951416,10.007762908935547
1689018012931085111,0.0,0.03515372797846794,0.001065264455974102,-0.833182156085968,-0.3100491166114807,9.96945571899414
1689018012940085111,0.008522115647792816,0.012783173471689224,-0.004261057823896408,-0.7841010689735413,-0.36990416049957275,9.933542251586914
1689018012949085111,0.019174760207533836,-0.009587380103766918,0.001065264455974102,-0.7146691679954529,-0.43335050344467163,9.882067680358887
1689018012959085111,0.030892668291926384,-0.030892668291926384,0.003195793367922306,-0.6871358752250671,-0.477643221616745,9.849745750427246
1689018012968085111,0.04580637067556381,-0.052197955548763275,0.003195793367922306,-0.6919242739677429,-0.46327802538871765,9.856927871704102
1689018012978085111,0.05645901337265968,-0.06924218684434891,-0.002130528911948204,-0.6739677786827087,-0.42377370595932007,9.86889934539795
1689018012988085111,0.0649811327457428,-0.08628641813993454,-0.01065264455974102,-0.6452373266220093,-0.37828385829925537,9.877279281616211
1689018012997085111,0.07030745595693588,-0.09800432622432709,-0.019174760207533836,-0.5985504388809204,-0.325611412525177,9.849745750427246
1689018013006085111,0.07243797928094864,-0.10759171098470688,-0.023435818031430244,-0.5482721924781799,-0.2885012924671173,9.81383228302002
1689018013016085111,0.07350324839353561,-0.11504855751991272,-0.026631610468029976,-0.5327098965644836,-0.2885012924671173,9.809043884277344
1689018013025085111,0.07243797928094864,-0.12250541150569916,-0.02876213937997818,-0.5315127968788147,-0.31603461503982544,9.81024169921875
1689018013035085111,0.07243797928094864,-0.12783172726631165,-0.02876213937997818,-0.5099649429321289,-0.35075053572654724,9.781511306762695
1689018013044085111,0.07243797928094864,-0.13102751970291138,-0.029827404767274857,-0.4908113479614258,-0.3495534360408783,9.758766174316406
1689018013053085111,0.07243797928094864,-0.13528858125209808,-0.034088462591171265,-0.5183446407318115,-0.3172317147254944,9.751583099365234
1689018013063085111,0.07137271761894226,-0.1395496428012848,-0.04048004746437073,-0.5710170865058899,-0.2825157940387726,9.746794700622559
1689018013073085111,0.06711165606975555,-0.1438107043504715,-0.047936901450157166,-0.5841851830482483,-0.22505494952201843,9.739612579345703
1689018013082085111,0.06072007119655609,-0.14594122767448425,-0.05326322093605995,-0.5662286877632141,-0.17717091739177704,9.72404956817627
1689018013091085111,0.05432848632335663,-0.14594122767448425,-0.055393751710653305,-0.5410895943641663,-0.16160860657691956,9.692925453186035
1689018013101085111,0.04580637067556381,-0.1438107043504715,-0.05645901337265968,-0.5219359397888184,-0.16160860657691956,9.672574996948242
1689018013110085111,0.03941478580236435,-0.14168016612529755,-0.05432848632335663,-0.5027823448181152,-0.15921440720558167,9.658209800720215
1689018013120085111,0.034088462591171265,-0.13635385036468506,-0.052197955548763275,-0.4920084476470947,-0.14484919607639313,9.642646789550781
1689018013130085111,0.029827404767274857,-0.13102751970291138,-0.05326322093605995,-0.5099649429321289,-0.11971008032560349,9.653421401977539
1689018013139085111,0.02556634694337845,-0.1257012039422989,-0.055393751710653305,-0.5135562419891357,-0.10893617570400238,9.66419506072998
1689018013148085111,0.022370552644133568,-0.11930961906909943,-0.05752427875995636,-0.5039794445037842,-0.12449848651885986,9.680953979492188
1689018013158085111,0.022370552644133568,-0.10972223430871964,-0.058589544147253036,-0.47405192255973816,-0.1496376097202301,9.696516990661621
1689018013167085111,0.022370552644133568,-0.09693906456232071,-0.05645901337265968,-0.4129997789859772,-0.15801730751991272,9.695319175720215
1689018013177085111,0.023435818031430244,-0.08309062570333481,-0.052197955548763275,-0.395043283700943,-0.13527239859104156,9.719261169433594
1689018013187085111,0.022370552644133568,-0.06924218684434891,-0.04687163606286049,-0.4429273009300232,-0.08858545869588852,9.7791166305542
1689018013196085111,0.020240023732185364,-0.058589544147253036,-0.044741105288267136,-0.5111620426177979,-0.05386953800916672,9.84615421295166
1689018013205085111,0.013848437927663326,-0.0511326938867569,-0.044741105288267136,-0.5566518902778625,-0.026336219161748886,9.907206535339355
1689018013215085111,0.008522115647792816,-0.04580637067556381,-0.047936901450157166,-0.5817909836769104,-0.040701426565647125,9.965864181518555
1689018013224085111,0.004261057823896408,-0.04261057823896408,-0.055393751710653305,-0.5853822827339172,-0.09576806426048279,10.017339706420898
1689018013233085111,0.001065264455974102,-0.041545312851667404,-0.06604639440774918,-0.5758054852485657,-0.14844051003456116,10.052055358886719
1689018013244085111,-0.002130528911948204,-0.04048004746437073,-0.0788295716047287,-0.5650315880775452,-0.19871874153614044,10.066420555114746
1689018013252085111,-0.004261057823896408,-0.041545312851667404,-0.09054747968912125,-0.5482721924781799,-0.25258827209472656,10.077195167541504
1689018013262085111,-0.006391586735844612,-0.041545312851667404,-0.09800432622432709,-0.5171475410461426,-0.29807811975479126,10.08318042755127
1689018013272085111,-0.009587380103766918,-0.041545312851667404,-0.10013485699892044,-0.45848962664604187,-0.3280056416988373,10.089165687561035
1689018013281085111,-0.01065264455974102,-0.04048004746437073,-0.09587380290031433,-0.39624038338661194,-0.3603273630142212,10.103530883789062
1689018013290085111,-0.011717909015715122,-0.03834952041506767,-0.09161274135112762,-0.3543418347835541,-0.39145198464393616,10.11669921875
1689018013300085111,-0.012783173471689224,-0.03621898964047432,-0.08628641813993454,-0.32202011346817017,-0.41778817772865295,10.110713958740234
1689018013309085111,-0.012783173471689224,-0.03302319720387459,-0.08202536404132843,-0.2968810200691223,-0.44651859998703003,10.104727745056152
1689018013319085111,-0.012783173471689224,-0.029827404767274857,-0.07776430249214172,-0.27653029561042786,-0.4908113479614258,10.11550235748291
1689018013328085111,-0.011717909015715122,-0.026631610468029976,-0.07350324839353561,-0.23942016065120697,-0.5446808934211731,10.104727745056152
1689018013338085111,-0.008522115647792816,-0.024501081556081772,-0.06817692518234253,-0.20111294090747833,-0.5925649404525757,10.077195167541504
1689018013347085111,-0.002130528911948204,-0.022370552644133568,-0.0649811327457428,-0.17717091739177704,-0.6332663297653198,10.065223693847656
1689018013357085111,0.006391586735844612,-0.01810949482023716,-0.06072007119655609,-0.15562310814857483,-0.6703764796257019,10.0580415725708
1689018013366085111,0.015978965908288956,-0.014913702383637428,-0.055393751710653305,-0.12090718746185303,-0.7026981711387634,10.032901763916016
1689018013375085111,0.026631610468029976,-0.013848437927663326,-0.052197955548763275,-0.08619125932455063,-0.729034423828125,9.996989250183105
1689018013385085111,0.037284255027770996,-0.012783173471689224,-0.0511326938867569,-0.05626373738050461,-0.7422025203704834,9.97184944152832
1689018013395085111,0.04687163606286049,-0.011717909015715122,-0.047936901450157166,-0.015562310814857483,-0.7565677165985107,9.940725326538086
1689018013404085111,0.05752427875995636,-0.009587380103766918,-0.04367584362626076,0.020350713282823563,-0.7529764175415039,9.907206535339355
1689018013413085111,0.06817692518234253,-0.009587380103766918,-0.03941478580236435,0.038307227194309235,-0.730231523513794,9.888052940368652
1689018013423085111,0.07563377171754837,-0.007456851191818714,-0.034088462591171265,0.05626373738050461,-0.690727174282074,9.853337287902832
1689018013432085111,0.08415588736534119,-0.00532632227987051,-0.027696875855326653,0.05626373738050461,-0.6200982332229614,9.816226959228516
1689018013442085111,0.08948221057653427,-0.006391586735844612,-0.022370552644133568,0.033518824726343155,-0.545877993106842,9.798270225524902
1689018013451085111,0.09161274135112762,-0.01065264455974102,-0.02130528911948204,0.004788403399288654,-0.47165772318840027,9.774328231811523
1689018013461085111,0.092678003013134,-0.015978965908288956,-0.02130528911948204,-0.028730420395731926,-0.39384618401527405,9.75517463684082
1689018013470085111,0.08948221057653427,-0.022370552644133568,-0.02130528911948204,-0.043095629662275314,-0.31364041566848755,9.745597839355469
1689018013480085111,0.08735168725252151,-0.029827404767274857,-0.020240023732185364,-0.04908113554120064,-0.2214636504650116,9.730035781860352
1689018013489085111,0.08202536404132843,-0.03834952041506767,-0.017044231295585632,-0.06584054231643677,-0.1280897855758667,9.715670585632324
1689018013499085111,0.07669904083013535,-0.04687163606286049,-0.014913702383637428,-0.08499415963888168,-0.03711012750864029,9.709684371948242
1689018013508085111,0.06924218684434891,-0.05752427875995636,-0.015978965908288956,-0.10175357013940811,0.0454898327589035,9.715670585632324
1689018013518085111,0.05965480953454971,-0.06924218684434891,-0.019174760207533836,-0.11851298063993454,0.11851298063993454,9.733627319335938
1689018013527085111,0.05006742849946022,-0.08415588736534119,-0.026631610468029976,-0.14844051003456116,0.17956513166427612,9.759963035583496
1689018013537085111,0.03941478580236435,-0.09906959533691406,-0.04048004746437073,-0.16759411990642548,0.22266075015068054,9.787496566772461
1689018013546085111,0.02876213937997818,-0.11504855751991272,-0.055393751710653305,-0.1496376097202301,0.2238578498363495,9.791088104248047
1689018013556085111,0.02130528911948204,-0.1299622654914856,-0.07137271761894226,-0.0933738648891449,0.19033902883529663,9.75278091430664
1689018013566085111,0.014913702383637428,-0.1395496428012848,-0.08415588736534119,-0.014365210197865963,0.15562310814857483,9.6989107131958
1689018013574085111,0.011717909015715122,-0.14700649678707123,-0.09480853378772736,0.04908113554120064,0.1280897855758667,9.670180320739746
1689018013584085111,0.009587380103766918,-0.1533980816602707,-0.10333064943552017,0.090979665517807,0.12210428714752197,9.659406661987305
1689018013593085111,0.009587380103766918,-0.15659387409687042,-0.10546118021011353,0.13407529890537262,0.11252747476100922,9.647435188293457
1689018013603085111,0.011717909015715122,-0.15446333587169647,-0.10546118021011353,0.1735796183347702,0.10295066982507706,9.639056205749512
1689018013612085111,0.011717909015715122,-0.14913702011108398,-0.1022653877735138,0.19153612852096558,0.10654197633266449,9.642646789550781
1689018013622085111,0.011717909015715122,-0.14274543523788452,-0.09800432622432709,0.19393032789230347,0.11971008032560349,9.652223587036133
1689018013631085111,0.011717909015715122,-0.1342233121395111,-0.092678003013134,0.18076223134994507,0.12928688526153564,9.660603523254395
1689018013641085111,0.011717909015715122,-0.12463594228029251,-0.08522115647792816,0.1628057062625885,0.11971008032560349,9.678560256958008
1689018013651085111,0.011717909015715122,-0.11504855751991272,-0.0788295716047287,0.14484919607639313,0.11611878126859665,9.715670585632324
1689018013660085111,0.012783173471689224,-0.10546118021011353,-0.0788295716047287,0.11372458189725876,0.10893617570400238,9.757569313049316
1689018013669085111,0.012783173471689224,-0.09587380290031433,-0.08202536404132843,0.0933738648891449,0.104147769510746,9.795876502990723
1689018013679085111,0.013848437927663326,-0.08522115647792816,-0.0884169489145279,0.08259996026754379,0.11611878126859665,9.825803756713867
1689018013688085111,0.014913702383637428,-0.07350324839353561,-0.09800432622432709,0.07062894850969315,0.13287819921970367,9.841365814208984
1689018013698085111,0.015978965908288956,-0.06178533658385277,-0.11078750342130661,0.07422025501728058,0.15083470940589905,9.841365814208984
1689018013707085111,0.014913702383637428,-0.047936901450157166,-0.12144014239311218,0.08379705995321274,0.1628057062625885,9.830592155456543
1689018013717085111,0.013848437927663326,-0.03195793181657791,-0.13102751970291138,0.09457096457481384,0.16400282084941864,9.809043884277344
1689018013726085111,0.012783173471689224,-0.015978965908288956,-0.13528858125209808,0.11372458189725876,0.15682020783424377,9.801861763000488
1689018013736085111,0.012783173471689224,0.0,-0.1342233121395111,0.15682020783424377,0.14484919607639313,9.78869342803955
1689018013745085111,0.011717909015715122,0.014913702383637428,-0.13102751970291138,0.19393032789230347,0.1304839849472046,9.775525093078613
1689018013755085111,0.011717909015715122,0.029827404767274857,-0.12889699637889862,0.20350714027881622,0.1304839849472046,9.792284965515137
1689018013764085111,0.01065264455974102,0.04580637067556381,-0.1299622654914856,0.20350714027881622,0.14365209639072418,9.81143856048584
1689018013773085111,0.008522115647792816,0.05965480953454971,-0.1299622654914856,0.18794482946395874,0.16400282084941864,9.825803756713867
1689018013783085111,0.00532632227987051,0.07137271761894226,-0.1299622654914856,0.1711854189634323,0.1843535304069519,9.84376049041748
1689018013793085111,0.001065264455974102,0.0788295716047287,-0.13102751970291138,0.1711854189634323,0.20111294090747833,9.853337287902832
1689018013802085111,-0.00532632227987051,0.08522115647792816,-0.12889699637889862,0.1867477297782898,0.21547815203666687,9.861716270446777
1689018013811085111,-0.011717909015715122,0.0884169489145279,-0.12463594228029251,0.20709843933582306,0.2214636504650116,9.871293067932129
1689018013821085111,-0.019174760207533836,0.09054747968912125,-0.11504855751991272,0.24181437492370605,0.22864626348018646,9.86770248413086
1689018013830085111,-0.02556634694337845,0.09054747968912125,-0.10439591109752655,0.28371289372444153,0.23582886159420013,9.86889934539795
1689018013840085111,-0.03302319720387459,0.08948221057653427,-0.09161274135112762,0.3172317147254944,0.2513911724090576,9.866504669189453
1689018013850085111,-0.041545312851667404,0.08735168725252151,-0.08096009492874146,0.32441431283950806,0.272938996553421,9.861716270446777
1689018013859085111,-0.049002163112163544,0.08522115647792816,-0.07456851005554199,0.3148375153541565,0.3016694188117981,9.858125686645508
1689018013868085111,-0.05752427875995636,0.07989483326673508,-0.06817692518234253,0.3100491166114807,0.3292027413845062,9.856927871704102
1689018013878085111,-0.06711165606975555,0.07563377171754837,-0.06178533658385277,0.33039984107017517,0.3292027413845062,9.855731010437012
1689018013887085111,-0.07456851005554199,0.07350324839353561,-0.05432848632335663,0.37828385829925537,0.3100491166114807,9.84495735168457
1689018013896085111,-0.08096009492874146,0.07030745595693588,-0.049002163112163544,0.4129997789859772,0.27054479718208313,9.84735107421875
1689018013906085111,-0.08628641813993454,0.07030745595693588,-0.047936901450157166,0.40222588181495667,0.25258827209472656,9.874884605407715
1689018013916085111,-0.09054747968912125,0.06817692518234253,-0.04580637067556381,0.36750996112823486,0.272938996553421,9.919177055358887
1689018013925085111,-0.09693906456232071,0.06391586363315582,-0.04261057823896408,0.3232172131538391,0.2908954918384552,9.96825885772705
1689018013935085111,-0.10120011866092682,0.05752427875995636,-0.03834952041506767,0.29209259152412415,0.2861070930957794,10.002974510192871
1689018013944085111,-0.10439591109752655,0.05006742849946022,-0.034088462591171265,0.304063618183136,0.2609679698944092,10.007762908935547
1689018013953085111,-0.10546118021011353,0.04580637067556381,-0.02556634694337845,0.33279404044151306,0.2454056739807129,9.988609313964844
1689018013963085111,-0.1022653877735138,0.044741105288267136,-0.015978965908288956,0.355538934469223,0.22266075015068054,9.97065258026123
1689018013972085111,-0.09693906456232071,0.047936901450157166,0.001065264455974102,0.37229835987091064,0.22026655077934265,9.955090522766113
1689018013982085111,-0.08948221057653427,0.052197955548763275,0.020240023732185364,0.3818751573562622,0.24899697303771973,9.922768592834473
1689018013991085111,-0.07989483326673508,0.06072007119655609,0.044741105288267136,0.363918662071228,0.2849099934101105,9.886856079101562
1689018014001085111,-0.07030745595693588,0.06924218684434891,0.07030745595693588,0.3016694188117981,0.34596213698387146,9.876081466674805
1689018014010085111,-0.05965480953454971,0.08096009492874146,0.092678003013134,0.21428105235099792,0.42018237709999084,9.865307807922363
1689018014020085111,-0.049002163112163544,0.09374327212572098,0.11398329585790634,0.1280897855758667,0.5015852451324463,9.852139472961426
1689018014029085111,-0.04048004746437073,0.10759171098470688,0.1299622654914856,0.033518824726343155,0.5889735817909241,9.859322547912598
1689018014039085111,-0.03302319720387459,0.11824434995651245,0.13741911947727203,-0.08978256583213806,0.6727706789970398,9.894038200378418
1689018014049085111,-0.027696875855326653,0.1257012039422989,0.1342233121395111,-0.2238578498363495,0.7529764175415039,9.950302124023438
1689018014057085111,-0.026631610468029976,0.1299622654914856,0.1203748807311058,-0.3495534360408783,0.8200140595436096,10.002974510192871
1689018014067085111,-0.026631610468029976,0.13102751970291138,0.10120011866092682,-0.4357447028160095,0.8738836050033569,10.054450035095215
1689018014076085111,-0.027696875855326653,0.1299622654914856,0.0788295716047287,-0.48602294921875,0.9193734526634216,10.08437728881836
1689018014086085111,-0.029827404767274857,0.1299622654914856,0.05432848632335663,-0.529118537902832,0.9528922438621521,10.102334022521973
1689018014095085111,-0.030892668291926384,0.12889699637889862,0.030892668291926384,-0.5626373887062073,0.9744400978088379,10.128669738769531
1689018014106085111,-0.03302319720387459,0.1257012039422989,0.006391586735844612,-0.5734112858772278,0.9816226959228516,10.139444351196289
1689018014115085111,-0.03302319720387459,0.11930961906909943,-0.01810949482023716,-0.5542576909065247,0.9600748419761658,10.134655952453613
1689018014124085111,-0.034088462591171265,0.11185276508331299,-0.044741105288267136,-0.507570743560791,0.9205705523490906,10.109516143798828
1689018014134085111,-0.034088462591171265,0.10333064943552017,-0.07137271761894226,-0.4381389021873474,0.8846575021743774,10.068815231323242
1689018014143085111,-0.03302319720387459,0.09480853378772736,-0.09480853378772736,-0.35913026332855225,0.8307879567146301,10.02811336517334
1689018014152085111,-0.030892668291926384,0.08735168725252151,-0.11398329585790634,-0.2693476974964142,0.7601590156555176,9.976638793945312
1689018014162085111,-0.026631610468029976,0.08202536404132843,-0.12676647305488586,-0.18315643072128296,0.6991068720817566,9.910798072814941
1689018014171085111,-0.020240023732185364,0.0788295716047287,-0.13209278881549835,-0.10893617570400238,0.6536170244216919,9.84615421295166
1689018014181085111,-0.012783173471689224,0.0788295716047287,-0.1299622654914856,-0.04908113554120064,0.6248866319656372,9.81143856048584
1689018014191085111,-0.004261057823896408,0.07669904083013535,-0.12250541150569916,-0.020350713282823563,0.6141127347946167,9.800664901733398
1689018014200085111,0.002130528911948204,0.07563377171754837,-0.10865697264671326,-0.02274491637945175,0.6189011335372925,9.803058624267578
1689018014209085111,0.01065264455974102,0.07243797928094864,-0.09480853378772736,-0.03950432687997818,0.6356605291366577,9.815030097961426
1689018014218085111,0.01810949482023716,0.06924218684434891,-0.07989483326673508,-0.05267243832349777,0.6536170244216919,9.835380554199219
1689018014228085111,0.026631610468029976,0.06711165606975555,-0.0649811327457428,-0.06823474913835526,0.6703764796257019,9.841365814208984
1689018014237085111,0.03515372797846794,0.06604639440774918,-0.05006742849946022,-0.09576806426048279,0.7003039717674255,9.81263542175293
1689018014248085111,0.044741105288267136,0.06817692518234253,-0.03515372797846794,-0.15442600846290588,0.750582218170166,9.794678688049316
1689018014257085111,0.052197955548763275,0.07243797928094864,-0.020240023732185364,-0.25258827209472656,0.8355763554573059,9.815030097961426
1689018014266085111,0.05645901337265968,0.07563377171754837,-0.006391586735844612,-0.3579331338405609,0.9481038451194763,9.84615421295166
1689018014276085111,0.058589544147253036,0.0788295716047287,0.002130528911948204,-0.46806642413139343,1.072602391242981,9.872490882873535
1689018014285085111,0.055393751710653305,0.07989483326673508,0.003195793367922306,-0.6177040338516235,1.2030863761901855,9.914388656616211
1689018014294085111,0.047936901450157166,0.07989483326673508,-0.002130528911948204,-0.7757213115692139,1.314416766166687,9.962272644042969
1689018014304085111,0.037284255027770996,0.07776430249214172,-0.013848437927663326,-0.8822633028030396,1.3970166444778442,9.962272644042969
1689018014313085111,0.02556634694337845,0.07456851005554199,-0.03515372797846794,-0.9756371974945068,1.4664485454559326,9.933542251586914
1689018014323085111,0.01065264455974102,0.06711165606975555,-0.06178533658385277,-1.0857704877853394,1.5286977291107178,9.933542251586914
1689018014332085111,-0.006391586735844612,0.05432848632335663,-0.09161274135112762,-1.1982979774475098,1.599326729774475,9.959878921508789
1689018014342085111,-0.02876213937997818,0.037284255027770996,-0.12463594228029251,-1.2952630519866943,1.666364312171936,9.989806175231934
1689018014351085111,-0.052197955548763275,0.020240023732185364,-0.15126754343509674,-1.3491326570510864,1.6915035247802734,9.99100399017334
1689018014361085111,-0.07776430249214172,0.003195793367922306,-0.16937704384326935,-1.3527239561080933,1.6747440099716187,9.9586820602417
1689018014370085111,-0.09906959533691406,-0.012783173471689224,-0.17896442115306854,-1.303642749786377,1.599326729774475,9.90122127532959
1689018014380085111,-0.11930961906909943,-0.027696875855326653,-0.1810949593782425,-1.2090718746185303,1.4628572463989258,9.842562675476074
1689018014389085111,-0.13209278881549835,-0.03834952041506767,-0.17470337450504303,-1.1013327836990356,1.302445650100708,9.804255485534668
1689018014399085111,-0.14061491191387177,-0.047936901450157166,-0.15659387409687042,-1.0055646896362305,1.1456254720687866,9.774328231811523
1689018014408085111,-0.14168016612529755,-0.05432848632335663,-0.13209278881549835,-0.9265560507774353,1.01753568649292,9.730035781860352
1689018014418085111,-0.13848437368869781,-0.05645901337265968,-0.10120011866092682,-0.8619126081466675,0.9205705523490906,9.702502250671387
1689018014427085111,-0.13102751970291138,-0.05645901337265968,-0.06604639440774918,-0.8164227604866028,0.851138710975647,9.695319175720215
1689018014436085111,-0.12250541150569916,-0.05432848632335663,-0.030892668291926384,-0.8020575642585754,0.8259995579719543,9.697713851928711
1689018014446085111,-0.11291802674531937,-0.0511326938867569,0.00532632227987051,-0.7996633648872375,0.811634361743927,9.709684371948242
1689018014455085111,-0.1022653877735138,-0.04580637067556381,0.041545312851667404,-0.7841010689735413,0.8152256608009338,9.706093788146973
1689018014465085111,-0.092678003013134,-0.04261057823896408,0.07243797928094864,-0.7960720658302307,0.8834604024887085,9.690530776977539
1689018014474085111,-0.08735168725252151,-0.04048004746437073,0.09587380290031433,-0.8822633028030396,1.0115501880645752,9.726444244384766
1689018014484085111,-0.08628641813993454,-0.04261057823896408,0.10865697264671326,-1.0067617893218994,1.1707645654678345,9.787496566772461
1689018014493085111,-0.09161274135112762,-0.0511326938867569,0.11185276508331299,-1.1228805780410767,1.3407529592514038,9.828197479248047
1689018014503085111,-0.10120011866092682,-0.06285060197114944,0.10759171098470688,-1.2282254695892334,1.4867992401123047,9.86889934539795
1689018014512085111,-0.11504855751991272,-0.0788295716047287,0.09480853378772736,-1.3096283674240112,1.6077064275741577,9.890446662902832
1689018014522085111,-0.13209278881549835,-0.10013485699892044,0.07456851005554199,-1.3706804513931274,1.6879122257232666,9.908403396606445
1689018014531085111,-0.15233281254768372,-0.1257012039422989,0.04687163606286049,-1.4185644388198853,1.6843209266662598,9.940725326538086
1689018014541085111,-0.17044231295585632,-0.1576591432094574,0.017044231295585632,-1.4389152526855469,1.6496049165725708,9.883264541625977
1689018014550085111,-0.19600865244865417,-0.2045307755470276,0.002130528911948204,-1.4173673391342163,1.5729905366897583,9.824606895446777
1689018014560085111,-0.20985709130764008,-0.2460760921239853,-0.009587380103766918,-1.259350061416626,1.3551181554794312,9.861716270446777
1689018014570085111,-0.2183792144060135,-0.28122982382774353,-0.019174760207533836,-0.895431399345398,1.0259153842926025,9.859322547912598
1689018014579085111,-0.22050973773002625,-0.3110572099685669,-0.002130528911948204,-0.5506663918495178,0.6859387755393982,9.854534149169922
1689018014588085111,-0.20559602975845337,-0.32170987129211426,0.003195793367922306,-0.21188685297966003,0.32202011346817017,9.888052940368652
1689018014597085111,-0.18002969026565552,-0.3206445872783661,0.013848437927663326,0.16160860657691956,-0.028730420395731926,9.884461402893066
1689018014607085111,-0.14168016612529755,-0.30360037088394165,0.01810949482023716,0.40701428055763245,-0.2968810200691223,9.852139472961426
1689018014616085111,-0.09693906456232071,-0.27590349316596985,0.006391586735844612,0.5327098965644836,-0.5027823448181152,9.866504669189453
1689018014627085111,-0.047936901450157166,-0.24288028478622437,-0.01810949482023716,0.5722141861915588,-0.6464344263076782,9.922768592834473
1689018014635085111,0.002130528911948204,-0.2087918221950531,-0.058589544147253036,0.545877993106842,-0.6979097723960876,9.93593692779541
1689018014645085111,0.047936901450157166,-0.18002969026565552,-0.11504855751991272,0.3926490843296051,-0.652419924736023,9.965864181518555
1689018014654085111,0.08202536404132843,-0.15978966653347015,-0.16831177473068237,0.16400282084941864,-0.6045359373092651,10.090362548828125
1689018014664085111,0.10120011866092682,-0.14700649678707123,-0.2045307755470276,-0.002394201699644327,-0.5662286877632141,10.257957458496094
1689018014673085111,0.1065264418721199,-0.14487595856189728,-0.23435817658901215,-0.11851298063993454,-0.5171475410461426,10.47942066192627
1689018014683085111,0.10120011866092682,-0.15552860498428345,-0.2599245309829712,-0.1951274424791336,-0.5207388401031494,10.732008934020996
1689018014692085111,0.08948221057653427,-0.17044231295585632,-0.2790992856025696,-0.16160860657691956,-0.5805938839912415,10.9091796875
1689018014702085111,0.07243797928094864,-0.18642127513885498,-0.29401299357414246,-0.0347159244120121,-0.6739677786827087,11.037269592285156
1689018014710893112,0.05645901337265968,-0.2034655064344406,-0.2972087860107422,0.12330138683319092,-0.8080430626869202,11.127052307128906
1689018014719893112,0.04687163606286049,-0.21411815285682678,-0.28975191712379456,0.33518823981285095,-0.973242998123169,11.110292434692383
1689018014729893112,0.04687163606286049,-0.21518342196941376,-0.2790992856025696,0.5758054852485657,-1.1204863786697388,11.006145477294922
1689018014739893112,0.05645901337265968,-0.20985709130764008,-0.27057716250419617,0.7661445140838623,-1.1982979774475098,10.900799751281738
1689018014748893112,0.07137271761894226,-0.19813919067382812,-0.26738137006759644,0.8774749040603638,-1.215057373046875,10.821791648864746
1689018014758893112,0.0884169489145279,-0.18216021358966827,-0.2737729549407959,0.9516951441764832,-1.1959037780761719,10.753557205200195
1689018014768893112,0.10439591109752655,-0.1619201898574829,-0.287621408700943,1.016338586807251,-1.1540051698684692,10.681730270385742
1689018014776893112,0.11930961906909943,-0.1395496428012848,-0.3099919557571411,1.0570399761199951,-1.0773907899856567,10.599130630493164
1689018014786893112,0.13315805792808533,-0.11824434995651245,-0.3419498801231384,1.0773907899856567,-0.9504980444908142,10.508151054382324
1689018014796893112,0.14700649678707123,-0.09800432622432709,-0.38242992758750916,1.0785878896713257,-0.8080430626869202,10.407594680786133
1689018014805893112,0.15872439742088318,-0.07776430249214172,-0.41971418261528015,1.1013327836990356,-0.6787561774253845,10.301053047180176
1689018014814893112,0.17044231295585632,-0.058589544147253036,-0.45593318343162537,1.137245774269104,-0.529118537902832,10.192116737365723
1689018014825893112,0.18002969026565552,-0.041545312851667404,-0.48469531536102295,1.1312602758407593,-0.3711012601852417,10.102334022521973
1689018014833893112,0.18322548270225525,-0.023435818031430244,-0.5028048157691956,1.0857704877853394,-0.23702596127986908,10.022128105163574
1689018014843893112,0.1810949593782425,-0.01065264455974102,-0.5070658922195435,1.0055646896362305,-0.08619125932455063,9.9371337890625
1689018014853893112,0.17363810539245605,-0.004261057823896408,-0.500674307346344,0.8894459009170532,0.02274491637945175,9.920374870300293
1689018014862893112,0.16085493564605713,-0.003195793367922306,-0.49321743845939636,0.7493851184844971,0.07422025501728058,9.922768592834473
1689018014871893112,0.14594122767448425,-0.00532632227987051,-0.47510793805122375,0.6308721303939819,0.14245499670505524,9.914388656616211
1689018014881893112,0.12676647305488586,-0.006391586735844612,-0.4495415985584259,0.5614402890205383,0.17836801707744598,9.892841339111328
1689018014890893112,0.10759171098470688,-0.009587380103766918,-0.41864892840385437,0.50876784324646,0.1496376097202301,9.830592155456543
1689018014900893112,0.09054747968912125,-0.014913702383637428,-0.38669100403785706,0.424970805644989,0.11851298063993454,9.761159896850586
1689018014910893112,0.07563377171754837,-0.01810949482023716,-0.36005938053131104,0.31842881441116333,0.07900865375995636,9.702502250671387
1689018014919893112,0.0649811327457428,-0.024501081556081772,-0.3440804183483124,0.208295539021492,0.0011971008498221636,9.667786598205566
1689018014928893112,0.06285060197114944,-0.029827404767274857,-0.3387540876865387,0.10893617570400238,-0.08738835901021957,9.604339599609375
1689018014938893112,0.06711165606975555,-0.03302319720387459,-0.3376888334751129,0.07302314788103104,-0.16160860657691956,9.510966300964355
1689018014947893112,0.07669904083013535,-0.030892668291926384,-0.3376888334751129,0.1149216815829277,-0.2190694510936737,9.435548782348633
1689018014956893112,0.08735168725252151,-0.026631610468029976,-0.3376888334751129,0.15322890877723694,-0.2561795711517334,9.366116523742676
1689018014967893112,0.10013485699892044,-0.020240023732185364,-0.3376888334751129,0.15682020783424377,-0.25977087020874023,9.312247276306152
1689018014975893112,0.11291802674531937,-0.012783173471689224,-0.33555829524993896,0.14724339544773102,-0.23822306096553802,9.271546363830566
1689018014985893112,0.12250541150569916,-0.004261057823896408,-0.333427757024765,0.14006079733371735,-0.17836801707744598,9.210494041442871
1689018014995893112,0.12889699637889862,0.006391586735844612,-0.3281014561653137,0.11252747476100922,-0.090979665517807,9.14704704284668
1689018015004893112,0.13102751970291138,0.013848437927663326,-0.3195793330669403,0.06464344263076782,0.016759412363171577,9.084797859191895
1689018015013893112,0.12783172726631165,0.020240023732185364,-0.30786141753196716,0.035913024097681046,0.09816227108240128,9.017760276794434
1689018015023893112,0.12463594228029251,0.030892668291926384,-0.2886866629123688,0.07661445438861847,0.11851298063993454,8.912415504455566
1689018015032893112,0.12357067316770554,0.04687163606286049,-0.25672873854637146,0.19153612852096558,0.10534487664699554,8.778340339660645
1689018015042893112,0.12357067316770554,0.06604639440774918,-0.21518342196941376,0.295683890581131,0.11372458189725876,8.677783966064453
1689018015052893112,0.11930961906909943,0.08735168725252151,-0.16937704384326935,0.33039984107017517,0.16160860657691956,8.66102409362793
1689018015061893112,0.11504855751991272,0.10546118021011353,-0.11717908829450607,0.295683890581131,0.24181437492370605,8.699331283569336
1689018015070893112,0.10759171098470688,0.1203748807311058,-0.0649811327457428,0.23822306096553802,0.35314473509788513,8.746018409729004
1689018015080893112,0.09587380290031433,0.13102751970291138,-0.012783173471689224,0.1759738177061081,0.456095427274704,8.826224327087402
1689018015089893112,0.08096009492874146,0.13635385036468506,0.03621898964047432,0.12449848651885986,0.5183446407318115,8.918400764465332
1689018015099893112,0.06711165606975555,0.1395496428012848,0.08096009492874146,0.11133037507534027,0.5267243385314941,8.971073150634766
1689018015108893112,0.05645901337265968,0.14274543523788452,0.1203748807311058,0.11971008032560349,0.5267243385314941,9.017760276794434
1689018015118893112,0.044741105288267136,0.14487595856189728,0.1576591432094574,0.11372458189725876,0.5506663918495178,9.08838939666748
1689018015127893112,0.03834952041506767,0.14487595856189728,0.18748654425144196,0.10773907601833344,0.5817909836769104,9.159018516540527
1689018015137893112,0.03302319720387459,0.1438107043504715,0.2087918221950531,0.08858545869588852,0.628477931022644,9.23443603515625
1689018015146893112,0.02876213937997818,0.14061491191387177,0.22157500684261322,0.021547814831137657,0.6967126727104187,9.330204010009766
1689018015155893112,0.026631610468029976,0.13528858125209808,0.22157500684261322,-0.05746084079146385,0.751779317855835,9.419986724853516
1689018015165893112,0.02556634694337845,0.12463594228029251,0.2087918221950531,-0.11013327538967133,0.788889467716217,9.496601104736328
1689018015174893112,0.024501081556081772,0.11185276508331299,0.18322548270225525,-0.1256955862045288,0.8032546639442444,9.569623947143555
1689018015184893112,0.022370552644133568,0.10120011866092682,0.14487595856189728,-0.08858545869588852,0.7769184112548828,9.622296333312988
1689018015193893112,0.023435818031430244,0.092678003013134,0.10759171098470688,0.0,0.7338228225708008,9.654618263244629
1689018015203893112,0.02556634694337845,0.08948221057653427,0.07456851005554199,0.11372458189725876,0.6811503767967224,9.667786598205566
1689018015212893112,0.03195793181657791,0.0884169489145279,0.04687163606286049,0.19393032789230347,0.6165069341659546,9.70010757446289
1689018015222893112,0.03834952041506767,0.08522115647792816,0.023435818031430244,0.2190694510936737,0.568622887134552,9.775525093078613
1689018015231893112,0.044741105288267136,0.07776430249214172,0.001065264455974102,0.21787235140800476,0.5434837937355042,9.88086986541748
1689018015241893112,0.049002163112163544,0.0649811327457428,-0.012783173471689224,0.26815059781074524,0.5183446407318115,10.02811336517334
1689018015250893112,0.04687163606286049,0.049002163112163544,-0.003195793367922306,0.43335050344467163,0.5386953949928284,10.228029251098633
1689018015260893112,0.029827404767274857,0.034088462591171265,0.044741105288267136,0.6835445761680603,0.5710170865058899,10.500968933105469
1689018015269893112,0.003195793367922306,0.023435818031430244,0.12783172726631165,0.8702923059463501,0.477643221616745,10.673351287841797
1689018015279893112,-0.013848437927663326,0.017044231295585632,0.21624867618083954,0.9157821536064148,0.28969839215278625,10.669759750366211
1689018015288893112,-0.008522115647792816,0.020240023732185364,0.29933929443359375,0.9074024558067322,0.1256955862045288,10.642226219177246
1689018015298893112,0.012783173471689224,0.03195793181657791,0.370712012052536,0.811634361743927,0.07302314788103104,10.652999877929688
1689018015307893112,0.04367584362626076,0.049002163112163544,0.4229099750518799,0.5626373887062073,0.1388636976480484,10.78348445892334
1689018015317893112,0.07669904083013535,0.06072007119655609,0.44741106033325195,0.20111294090747833,0.2849099934101105,11.046846389770508
1689018015326893112,0.10013485699892044,0.06391586363315582,0.43888893723487854,-0.1843535304069519,0.46806642413139343,11.372457504272461
1689018015336893112,0.10972223430871964,0.05965480953454971,0.3984088897705078,-0.5255272388458252,0.6308721303939819,11.682506561279297
1689018015345893112,0.1065264418721199,0.05006742849946022,0.33236250281333923,-0.7996633648872375,0.7098807692527771,11.930306434631348
1689018015354893112,0.09693906456232071,0.037284255027770996,0.23968449234962463,-0.9840168952941895,0.6584054827690125,12.06318473815918
1689018015364893112,0.08415588736534119,0.029827404767274857,0.13848437368869781,-1.0127472877502441,0.5135562419891357,12.065579414367676
1689018015373893112,0.07456851005554199,0.026631610468029976,0.04687163606286049,-0.8391676545143127,0.325611412525177,11.966219902038574
1689018015383893112,0.07243797928094864,0.03302319720387459,-0.017044231295585632,-0.4728548228740692,0.24660277366638184,11.864466667175293
1689018015393893112,0.07456851005554199,0.049002163112163544,-0.047936901450157166,-0.05626373738050461,0.2059013396501541,11.702857971191406
1689018015401893112,0.08096009492874146,0.07350324839353561,-0.05752427875995636,0.24660277366638184,0.11971008032560349,11.435904502868652
1689018015411893112,0.10013485699892044,0.10865697264671326,-0.05432848632335663,0.4836287498474121,0.008379706181585789,11.133037567138672
1689018015421893112,0.12676647305488586,0.14274543523788452,-0.03941478580236435,0.6356605291366577,-0.15921440720558167,10.803834915161133
1689018015430893112,0.15978966653347015,0.17470337450504303,-0.014913702383637428,0.6500257253646851,-0.3124433159828186,10.520122528076172
1689018015439893112,0.1949433982372284,0.2034655064344406,0.012783173471689224,0.5781996846199036,-0.42616790533065796,10.24119758605957
1689018015449893112,0.22796659171581268,0.22370553016662598,0.047936901450157166,0.43933600187301636,-0.5051765441894531,9.93833065032959
1689018015458893112,0.25672873854637146,0.24288028478622437,0.07989483326673508,0.24420857429504395,-0.5231330394744873,9.692925453186035
1689018015468893112,0.2780340313911438,0.25672873854637146,0.1022653877735138,0.0035913025494664907,-0.44651859998703003,9.549273490905762
1689018015478893112,0.2833603322505951,0.258859246969223,0.12250541150569916,-0.25258827209472656,-0.2753331959247589,9.478644371032715
1689018015487893112,0.2641855776309967,0.24501082301139832,0.15446333587169647,-0.4944026470184326,-0.06224924325942993,9.41519832611084
1689018015496893112,0.22477079927921295,0.2183792144060135,0.20985709130764008,-0.7266402244567871,0.11971008032560349,9.287108421325684
1689018015506893112,0.17363810539245605,0.18216021358966827,0.2641855776309967,-0.9864110946655273,0.2777273952960968,9.105149269104004
1689018015516893112,0.12250541150569916,0.13848437368869781,0.2929477095603943,-1.1899182796478271,0.46567222476005554,8.972270965576172
1689018015525893112,0.07456851005554199,0.08735168725252151,0.2929477095603943,-1.2725181579589844,0.7086836695671082,8.953117370605469
1689018015534893112,0.023435818031430244,0.03515372797846794,0.26631611585617065,-1.3323732614517212,0.9433154463768005,9.002198219299316
1689018015544893112,-0.027696875855326653,-0.014913702383637428,0.2087918221950531,-1.4305354356765747,1.1695674657821655,9.108739852905273
1689018015553893112,-0.07669904083013535,-0.05752427875995636,0.12676647305488586,-1.4712369441986084,1.3563152551651,9.217676162719727
1689018015563893112,-0.12250541150569916,-0.092678003013134,0.03834952041506767,-1.3778630495071411,1.3778630495071411,9.242815971374512
1689018015572893112,-0.16405072808265686,-0.12144014239311218,-0.04261057823896408,-1.2186486721038818,1.2222399711608887,9.160215377807617
1689018015582893112,-0.19600865244865417,-0.14168016612529755,-0.09693906456232071,-1.01753568649292,0.933738648891449,9.02254867553711
1689018015591893112,-0.21944446861743927,-0.14913702011108398,-0.1299622654914856,-0.7793126106262207,0.5781996846199036,8.848969459533691
1689018015601893112,-0.222640261054039,-0.14700649678707123,-0.12463594228029251,-0.4824316203594208,0.13766659796237946,8.585607528686523
1689018015610893112,-0.2034655064344406,-0.14913702011108398,-0.06604639440774918,-0.181959331035614,-0.40462008118629456,8.236053466796875
1689018015620893112,-0.1619201898574829,-0.15446333587169647,0.03621898964047432,0.04908113554120064,-0.8930371999740601,7.933187007904053
1689018015629893112,-0.10439591109752655,-0.1672465205192566,0.1619201898574829,0.2968810200691223,-1.1276689767837524,7.934384346008301
1689018015639893112,-0.05752427875995636,-0.17363810539245605,0.30892667174339294,0.5554547905921936,-1.1528080701828003,8.186972618103027
1689018015648893112,-0.030892668291926384,-0.17363810539245605,0.4495415985584259,0.6332663297653198,-1.0833762884140015,8.440757751464844
1689018015657893112,-0.011717909015715122,-0.15872439742088318,0.5518069863319397,0.5614402890205383,-0.933738648891449,8.665812492370605
1689018015667893112,0.001065264455974102,-0.12783172726631165,0.6082659959793091,0.4704606235027313,-0.6979097723960876,8.936357498168945
1689018015676893112,0.004261057823896408,-0.0788295716047287,0.6263754963874817,0.4489127993583679,-0.333991140127182,9.23682975769043
1689018015686893112,-0.004261057823896408,-0.022370552644133568,0.6242449879646301,0.590170681476593,0.04908113554120064,9.428365707397461
1689018015696893112,-0.002130528911948204,0.02556634694337845,0.6221144199371338,0.7266402244567871,0.22625206410884857,9.349357604980469
1689018015705893112,0.02876213937997818,0.052197955548763275,0.5976133346557617,0.7457938194274902,0.2861070930957794,9.20091724395752
1689018015714893112,0.06817692518234253,0.06178533658385277,0.5432848334312439,0.6979097723960876,0.45010989904403687,9.259574890136719
1689018015724893112,0.10013485699892044,0.07243797928094864,0.4783037304878235,0.6009446382522583,0.7098807692527771,9.441534042358398
1689018015734893112,0.12144014239311218,0.08948221057653427,0.40586575865745544,0.47884032130241394,0.9421183466911316,9.623493194580078
1689018015743893112,0.13528858125209808,0.11398329585790634,0.3291667103767395,0.36990416049957275,1.0833762884140015,9.738415718078613
1689018015752893112,0.14700649678707123,0.14274543523788452,0.25672873854637146,0.2513911724090576,1.136048674583435,9.782708168029785
1689018015762893112,0.16405072808265686,0.17470337450504303,0.1906823366880417,0.10175357013940811,1.115697979927063,9.781511306762695
1689018015771893112,0.185356006026268,0.20133498311042786,0.14168016612529755,-0.0454898327589035,1.058237075805664,9.78989028930664
1689018015781893112,0.20772656798362732,0.22050973773002625,0.11398329585790634,-0.1735796183347702,1.0199298858642578,9.84495735168457
1689018015791893112,0.22583605349063873,0.23009711503982544,0.10333064943552017,-0.28371289372444153,1.0295066833496094,9.9586820602417
1689018015800893112,0.23861923813819885,0.2322276532649994,0.11185276508331299,-0.3758896589279175,1.0402805805206299,10.11550235748291
1689018015809893112,0.24181503057479858,0.22477079927921295,0.1257012039422989,-0.4728548228740692,1.059434175491333,10.2747163772583
1689018015818893112,0.24714134633541107,0.20666129887104034,0.12783172726631165,-0.569819986820221,1.113303780555725,10.435128211975098
1689018015828893112,0.26205503940582275,0.18002969026565552,0.11930961906909943,-0.6440402269363403,1.159990668296814,10.5715970993042
1689018015837893112,0.2833603322505951,0.148071750998497,0.1022653877735138,-0.689530074596405,1.2234370708465576,10.710460662841797
1689018015847893112,0.29933929443359375,0.11398329585790634,0.07243797928094864,-0.6991068720817566,1.3563152551651,10.937910079956055
1689018015856893112,0.3014698326587677,0.08522115647792816,0.049002163112163544,-0.6643909811973572,1.50355863571167,11.219228744506836
1689018015866893112,0.2865561246871948,0.0649811327457428,0.03834952041506767,-0.6045359373092651,1.5945383310317993,11.477803230285645
1689018015876893112,0.25779399275779724,0.052197955548763275,0.02556634694337845,-0.5542576909065247,1.6101006269454956,11.683704376220703
1689018015885893112,0.22796659171581268,0.04367584362626076,0.002130528911948204,-0.5159504413604736,1.5598224401474,11.797429084777832
1689018015894893112,0.20133498311042786,0.037284255027770996,-0.029827404767274857,-0.5135562419891357,1.4413094520568848,11.779472351074219
1689018015904893112,0.1896170675754547,0.026631610468029976,-0.047936901450157166,-0.5889735817909241,1.359906554222107,11.708843231201172
1689018015913893112,0.1949433982372284,0.011717909015715122,-0.04048004746437073,-0.6021417379379272,1.3192051649093628,11.596315383911133
1689018015923893112,0.20985709130764008,-0.006391586735844612,-0.020240023732185364,-0.4489127993583679,1.2928688526153564,11.446678161621094
1689018015932893112,0.21624867618083954,-0.019174760207533836,-0.003195793367922306,-0.264559268951416,1.3563152551651,11.409567832946777
1689018015942893112,0.20240023732185364,-0.02556634694337845,-0.017044231295585632,-0.09696516394615173,1.4844050407409668,11.4849853515625
1689018015951893112,0.1757686287164688,-0.02876213937997818,-0.049002163112163544,0.08619125932455063,1.6053122282028198,11.488576889038086
1689018015961893112,0.15020228922367096,-0.03195793181657791,-0.0884169489145279,0.243011474609375,1.6519991159439087,11.347318649291992
1689018015970893112,0.12357067316770554,-0.03195793181657791,-0.13635385036468506,0.33279404044151306,1.6101006269454956,11.174936294555664
1689018015980893112,0.09161274135112762,-0.02556634694337845,-0.1810949593782425,0.3315969407558441,1.5490484237670898,11.109095573425293
1689018015989893112,0.058589544147253036,-0.013848437927663326,-0.20133498311042786,0.30047231912612915,1.5286977291107178,10.994174003601074
1689018015998893112,0.026631610468029976,0.001065264455974102,-0.2173139452934265,0.36750996112823486,1.525106430053711,10.680533409118652
1689018016008893112,0.003195793367922306,0.01810949482023716,-0.24181503057479858,0.5051765441894531,1.521515130996704,10.302249908447266
1689018016017893112,-0.012783173471689224,0.03515372797846794,-0.26205503940582275,0.5985504388809204,1.479616641998291,9.925163269042969
1689018016027893112,-0.017044231295585632,0.049002163112163544,-0.27696874737739563,0.6560112833976746,1.4449007511138916,9.59596061706543
1689018016036893112,-0.01810949482023716,0.05965480953454971,-0.2865561246871948,0.711077868938446,1.4700398445129395,9.380481719970703
1689018016046893112,-0.017044231295585632,0.07137271761894226,-0.2886866629123688,0.7577648162841797,1.499967336654663,9.283516883850098
1689018016056893112,-0.022370552644133568,0.08628641813993454,-0.2908172011375427,0.7984662652015686,1.4987702369689941,9.217676162719727
1689018016065893112,-0.041545312851667404,0.10972223430871964,-0.28549087047576904,0.8176198601722717,1.4293383359909058,9.1231050491333
1689018016074893112,-0.07137271761894226,0.1395496428012848,-0.24288028478622437,0.8200140595436096,1.2485761642456055,8.9866361618042
1689018016084893112,-0.10333064943552017,0.1715075671672821,-0.16405072808265686,0.7781155109405518,1.016338586807251,8.828619003295898
1689018016093893112,-0.13528858125209808,0.20026971399784088,-0.07776430249214172,0.690727174282074,0.812831461429596,8.680177688598633
1689018016103893112,-0.16405072808265686,0.22050973773002625,-0.004261057823896408,0.5961562395095825,0.6404489278793335,8.523358345031738
1689018016113893112,-0.18429075181484222,0.23116238415241241,0.03834952041506767,0.4920084476470947,0.50876784324646,8.373720169067383
1689018016122893112,-0.20026971399784088,0.23009711503982544,0.027696875855326653,0.37229835987091064,0.40701428055763245,8.250418663024902
1689018016131893112,-0.21411815285682678,0.2173139452934265,-0.03302319720387459,0.22505494952201843,0.38786065578460693,8.194154739379883
1689018016140893112,-0.2269013226032257,0.20026971399784088,-0.11291802674531937,0.040701426565647125,0.43095630407333374,8.111555099487305
1689018016150893112,-0.2460760921239853,0.18855179846286774,-0.17789916694164276,-0.14365209639072418,0.45010989904403687,7.969099998474121
1689018016159893112,-0.2695119082927704,0.18748654425144196,-0.2034655064344406,-0.3148375153541565,0.4704606235027313,7.839813232421875
1689018016170893112,-0.2918824553489685,0.19387812912464142,-0.18429075181484222,-0.48722004890441895,0.42616790533065796,7.7416510581970215
1689018016178893112,-0.3099919557571411,0.19600865244865417,-0.14700649678707123,-0.6368576288223267,0.30286651849746704,7.6746134757995605
1689018016188893112,-0.324905663728714,0.1949433982372284,-0.1065264418721199,-0.751779317855835,0.20709843933582306,7.6734161376953125
1689018016197893112,-0.32703617215156555,0.18429075181484222,-0.07776430249214172,-0.8607155084609985,0.1412578970193863,7.736862659454346
1689018016207893112,-0.3142530024051666,0.16618125140666962,-0.06391586363315582,-0.970848798751831,0.10893617570400238,7.797914981842041
1689018016216893112,-0.2918824553489685,0.14700649678707123,-0.047936901450157166,-1.0821791887283325,0.11851298063993454,7.8529815673828125
1689018016226893112,-0.26205503940582275,0.13315805792808533,-0.03195793181657791,-1.193509578704834,0.14844051003456116,7.951143741607666
1689018016235893112,-0.23116238415241241,0.12250541150569916,-0.022370552644133568,-1.2521674633026123,0.17477671802043915,8.103175163269043
1689018016245893112,-0.2034655064344406,0.11291802674531937,-0.01065264455974102,-1.181538462638855,0.21428105235099792,8.234856605529785
1689018016255893112,-0.17470337450504303,0.10546118021011353,0.0,-1.0235211849212646,0.33518823981285095,8.35456657409668
1689018016264893112,-0.14913702011108398,0.1022653877735138,0.001065264455974102,-0.8858546018600464,0.5099649429321289,8.493430137634277
1689018016273893112,-0.13102751970291138,0.10439591109752655,0.0,-0.8104372620582581,0.669179379940033,8.674192428588867
1689018016282893112,-0.12144014239311218,0.10972223430871964,-0.01065264455974102,-0.7960720658302307,0.7936778664588928,8.911218643188477
1689018016292893112,-0.11930961906909943,0.11185276508331299,-0.019174760207533836,-0.8140285611152649,0.8678981065750122,9.139864921569824
1689018016301893112,-0.12144014239311218,0.10972223430871964,-0.022370552644133568,-0.8631097078323364,0.8882488012313843,9.344569206237793
1689018016312893112,-0.12463594228029251,0.1022653877735138,-0.020240023732185364,-0.9181763529777527,0.8786720037460327,9.514557838439941
1689018016321893112,-0.12676647305488586,0.092678003013134,-0.012783173471689224,-0.9564835429191589,0.8379705548286438,9.661800384521484
1689018016330893112,-0.12676647305488586,0.07989483326673508,-0.007456851191818714,-0.9780313968658447,0.7661445140838623,9.829395294189453
1689018016340893112,-0.1203748807311058,0.06604639440774918,-0.00532632227987051,-0.9648632407188416,0.6919242739677429,9.959878921508789
1689018016349893112,-0.1065264418721199,0.052197955548763275,-0.006391586735844612,-0.9145850539207458,0.6356605291366577,10.032901763916016
1689018016359893112,-0.08735168725252151,0.037284255027770996,-0.01065264455974102,-0.8224082589149475,0.6332663297653198,10.064026832580566
1689018016368893112,-0.0649811327457428,0.026631610468029976,-0.013848437927663326,-0.7266402244567871,0.6631938815116882,10.091560363769531
1689018016377893112,-0.044741105288267136,0.020240023732185364,-0.019174760207533836,-0.6536170244216919,0.6655880808830261,10.144232749938965
1689018016387893112,-0.030892668291926384,0.019174760207533836,-0.024501081556081772,-0.5829880833625793,0.652419924736023,10.205284118652344
1689018016396893112,-0.022370552644133568,0.023435818031430244,-0.02556634694337845,-0.5219359397888184,0.6189011335372925,10.279504776000977
1689018016406893112,-0.008522115647792816,0.02876213937997818,-0.022370552644133568,-0.50876784324646,0.5255272388458252,10.348937034606934
1689018016415893112,0.011717909015715122,0.029827404767274857,-0.019174760207533836,-0.5506663918495178,0.3926490843296051,10.383652687072754
1689018016425893112,0.04261057823896408,0.030892668291926384,-0.017044231295585632,-0.6057330369949341,0.35075053572654724,10.419565200805664
1689018016434893112,0.07563377171754837,0.03195793181657791,-0.011717909015715122,-0.6368576288223267,0.4010287821292877,10.48061752319336
1689018016444893112,0.09800432622432709,0.034088462591171265,-0.008522115647792816,-0.6440402269363403,0.49559974670410156,10.572794914245605
1689018016454893112,0.10759171098470688,0.03195793181657791,-0.009587380103766918,-0.6835445761680603,0.6117185354232788,10.740388870239258
1689018016463893112,0.10013485699892044,0.023435818031430244,-0.01810949482023716,-0.7637503147125244,0.6715735793113708,10.951078414916992
1689018016472893112,0.08096009492874146,0.006391586735844612,-0.03195793181657791,-0.8367734551429749,0.6177040338516235,11.119869232177734
1689018016481893112,0.06391586363315582,-0.019174760207533836,-0.0511326938867569,-0.895431399345398,0.4513069987297058,11.257535934448242
1689018016491893112,0.058589544147253036,-0.0511326938867569,-0.0788295716047287,-0.910993754863739,0.26815059781074524,11.366472244262695
1689018016501893112,0.06924218684434891,-0.0884169489145279,-0.09587380290031433,-0.8678981065750122,0.1604115068912506,11.379640579223633
1689018016511893112,0.09054747968912125,-0.11930961906909943,-0.08735168725252151,-0.7984662652015686,0.15921440720558167,11.341333389282227
1689018016520893112,0.11078750342130661,-0.13635385036468506,-0.05432848632335663,-0.730231523513794,0.2561795711517334,11.33774185180664
1689018016529893112,0.11824434995651245,-0.14487595856189728,-0.014913702383637428,-0.6739677786827087,0.4381389021873474,11.379640579223633
1689018016539893112,0.11398329585790634,-0.1438107043504715,0.027696875855326653,-0.6560112833976746,0.6536170244216919,11.459846496582031
1689018016548893112,0.09693906456232071,-0.13528858125209808,0.06924218684434891,-0.6584054827690125,0.8236053586006165,11.558008193969727
1689018016557893112,0.0649811327457428,-0.12250541150569916,0.09693906456232071,-0.6751648783683777,0.8990226984024048,11.647790908813477
1689018016567893112,0.026631610468029976,-0.10972223430871964,0.1065264418721199,-0.7433996200561523,0.8822633028030396,11.680112838745117
1689018016576893112,-0.00532632227987051,-0.10120011866092682,0.09054747968912125,-0.8583213090896606,0.8176198601722717,11.63222885131836
1689018016586893112,-0.026631610468029976,-0.10013485699892044,0.06391586363315582,-1.0271124839782715,0.712274968624115,11.560402870178223
1689018016596893112,-0.03302319720387459,-0.10972223430871964,0.04048004746437073,-1.2318167686462402,0.5351040959358215,11.467028617858887
1689018016605893112,-0.026631610468029976,-0.12889699637889862,0.024501081556081772,-1.3970166444778442,0.363918662071228,11.358092308044434
1689018016614893112,-0.012783173471689224,-0.15446333587169647,0.024501081556081772,-1.4437036514282227,0.31842881441116333,11.220425605773926
1689018016624893112,-0.00532632227987051,-0.1715075671672821,0.037284255027770996,-1.3623007535934448,0.3734954595565796,10.975020408630371
1689018016633893112,-0.011717909015715122,-0.17257283627986908,0.058589544147253036,-1.1528080701828003,0.44412440061569214,10.621875762939453
1689018016643893112,-0.03515372797846794,-0.16405072808265686,0.07563377171754837,-0.9062053561210632,0.48961424827575684,10.277111053466797
1689018016652893112,-0.07137271761894226,-0.148071750998497,0.08309062570333481,-0.7673416137695312,0.40222588181495667,10.053253173828125
1689018016662893112,-0.1022653877735138,-0.13528858125209808,0.09906959533691406,-0.8164227604866028,0.20111294090747833,9.876081466674805
1689018016671893112,-0.11824434995651245,-0.12250541150569916,0.12250541150569916,-0.9959878921508789,-0.0035913025494664907,9.719261169433594
1689018016681893112,-0.12144014239311218,-0.1161138266324997,0.14168016612529755,-1.1216834783554077,-0.13766659796237946,9.5624418258667
1689018016690893112,-0.11824434995651245,-0.11185276508331299,0.148071750998497,-1.1719616651535034,-0.16160860657691956,9.405621528625488
1689018016699893112,-0.11291802674531937,-0.1065264418721199,0.14594122767448425,-1.1851298809051514,-0.08259996026754379,9.276334762573242
1689018016709893112,-0.1065264418721199,-0.09693906456232071,0.1438107043504715,-1.1432312726974487,0.07302314788103104,9.151835441589355
1689018016718893112,-0.10546118021011353,-0.08522115647792816,0.14274543523788452,-1.1001356840133667,0.243011474609375,9.070432662963867
1689018016728893112,-0.10972223430871964,-0.07137271761894226,0.14594122767448425,-1.058237075805664,0.35314473509788513,9.032125473022461
1689018016738893112,-0.12357067316770554,-0.06285060197114944,0.148071750998497,-0.9289502501487732,0.41778817772865295,8.974664688110352
1689018016747893112,-0.14274543523788452,-0.058589544147253036,0.15020228922367096,-0.7469909191131592,0.45250412821769714,8.905233383178711
1689018016756893112,-0.16405072808265686,-0.06178533658385277,0.14700649678707123,-0.6141127347946167,0.39145198464393616,8.814253807067871
1689018016766893112,-0.17896442115306854,-0.07563377171754837,0.148071750998497,-0.5386953949928284,0.2513911724090576,8.66102409362793
1689018016775893112,-0.185356006026268,-0.09587380290031433,0.15020228922367096,-0.5195417404174805,0.12090718746185303,8.493430137634277
1689018016785893112,-0.1896170675754547,-0.12144014239311218,0.1438107043504715,-0.5231330394744873,0.03711012750864029,8.348581314086914
1689018016795893112,-0.1896170675754547,-0.15020228922367096,0.13315805792808533,-0.529118537902832,0.038307227194309235,8.236053466796875
1689018016804893112,-0.18642127513885498,-0.17896442115306854,0.11930961906909943,-0.5183446407318115,0.09816227108240128,8.129511833190918
1689018016813893112,-0.18002969026565552,-0.2087918221950531,0.10439591109752655,-0.4920084476470947,0.1735796183347702,8.052897453308105
1689018016823893112,-0.17044231295585632,-0.23542344570159912,0.09800432622432709,-0.4537012279033661,0.2717418968677521,8.010998725891113
1689018016832893112,-0.16298545897006989,-0.2556634545326233,0.08948221057653427,-0.41539397835731506,0.33997663855552673,8.054094314575195
1689018016842893112,-0.1576591432094574,-0.27164241671562195,0.07350324839353561,-0.386663556098938,0.3770867586135864,8.183381080627441
1689018016851893112,-0.14594122767448425,-0.2822950780391693,0.06817692518234253,-0.35913026332855225,0.4345476031303406,8.273163795471191
1689018016860893112,-0.12676647305488586,-0.2822950780391693,0.07456851005554199,-0.31364041566848755,0.4800374209880829,8.350975036621094
1689018016870893112,-0.1065264418721199,-0.27590349316596985,0.08628641813993454,-0.243011474609375,0.5315127968788147,8.438364028930664
1689018016880893112,-0.08522115647792816,-0.2641855776309967,0.09800432622432709,-0.19033902883529663,0.6009446382522583,8.51138687133789
1689018016889893112,-0.06285060197114944,-0.25353294610977173,0.10333064943552017,-0.18555063009262085,0.6799532771110535,8.608351707458496
1689018016898893112,-0.03941478580236435,-0.24181503057479858,0.11291802674531937,-0.21667525172233582,0.7398083209991455,8.763975143432617
1689018016908893112,-0.013848437927663326,-0.23755396902561188,0.11291802674531937,-0.27892449498176575,0.7565677165985107,8.977059364318848
1689018016917893112,0.009587380103766918,-0.24288028478622437,0.10013485699892044,-0.35314473509788513,0.7422025203704834,9.186552047729492
1689018016927893112,0.030892668291926384,-0.2514024078845978,0.0884169489145279,-0.4034229815006256,0.7134720683097839,9.375693321228027
1689018016936893112,0.052197955548763275,-0.2599245309829712,0.07563377171754837,-0.42856210470199585,0.6955155730247498,9.558850288391113
1689018016946893112,0.07456851005554199,-0.2631203234195709,0.05965480953454971,-0.4381389021873474,0.6823474764823914,9.763554573059082
1689018016955893112,0.09906959533691406,-0.260989785194397,0.03941478580236435,-0.4118026793003082,0.6835445761680603,9.951498985290527
1689018016965893112,0.12783172726631165,-0.25246766209602356,0.026631610468029976,-0.33039984107017517,0.6991068720817566,10.067618370056152
1689018016974893112,0.1576591432094574,-0.23968449234962463,0.019174760207533836,-0.2106897532939911,0.7565677165985107,10.178948402404785
1689018016983893112,0.18216021358966827,-0.222640261054039,0.01065264455974102,-0.07302314788103104,0.8595184087753296,10.317811965942383
1689018016994893112,0.2034655064344406,-0.20133498311042786,0.007456851191818714,0.08619125932455063,0.9900023937225342,10.445901870727539
1689018017002893112,0.2173139452934265,-0.17789916694164276,0.003195793367922306,0.24420857429504395,1.1192892789840698,10.575188636779785
1689018017012893112,0.2269013226032257,-0.15659387409687042,-0.004261057823896408,0.34356793761253357,1.2258312702178955,10.739192008972168
1689018017022893112,0.2269013226032257,-0.14061491191387177,-0.02130528911948204,0.37469255924224854,1.3084311485290527,10.94030475616455
1689018017031893112,0.2173139452934265,-0.12889699637889862,-0.04687163606286049,0.36152446269989014,1.3263877630233765,11.153388023376465
1689018017041893112,0.2034655064344406,-0.11824434995651245,-0.07350324839353561,0.3148375153541565,1.2497732639312744,11.368866920471191
1689018017050893112,0.18322548270225525,-0.11078750342130661,-0.09800432622432709,0.2717418968677521,1.1180921792984009,11.581950187683105
1689018017060893112,0.16085493564605713,-0.10439591109752655,-0.11185276508331299,0.243011474609375,0.9696516990661621,11.75672721862793
1689018017069893112,0.13848437368869781,-0.09800432622432709,-0.10759171098470688,0.22266075015068054,0.8559271097183228,11.860875129699707
1689018017079893112,0.12250541150569916,-0.08522115647792816,-0.07030745595693588,0.23582886159420013,0.8595184087753296,11.901576042175293
1689018017088893112,0.11930961906909943,-0.07137271761894226,-0.001065264455974102,0.3064578175544739,0.933738648891449,11.932701110839844
1689018017097893112,0.11824434995651245,-0.0649811327457428,0.05752427875995636,0.40701428055763245,0.9768342971801758,11.996147155761719
1689018017107893112,0.1065264418721199,-0.06817692518234253,0.07776430249214172,0.48961424827575684,0.9804255962371826,12.077549934387207
1689018017116893112,0.07776430249214172,-0.07989483326673508,0.058589544147253036,0.5219359397888184,0.9792284965515137,12.18409252166748
1689018017126893112,0.03515372797846794,-0.09587380290031433,0.01810949482023716,0.590170681476593,0.9660603404045105,12.251130104064941
1689018017135893112,-0.020240023732185364,-0.10972223430871964,-0.02876213937997818,0.7541735172271729,0.9038110971450806,12.181697845458984
1689018017145893112,-0.07989483326673508,-0.11824434995651245,-0.07989483326673508,0.9313444495201111,0.7362170219421387,11.985373497009277
1689018017154893112,-0.14168016612529755,-0.11824434995651245,-0.1203748807311058,1.0666168928146362,0.4728548228740692,11.718420028686523
1689018017164893112,-0.19600865244865417,-0.10759171098470688,-0.13528858125209808,1.1839326620101929,0.21667525172233582,11.404779434204102
1689018017174893112,-0.2364886999130249,-0.08735168725252151,-0.1203748807311058,1.3239935636520386,0.0011971008498221636,11.016919136047363
1689018017183893112,-0.25779399275779724,-0.05965480953454971,-0.08202536404132843,1.460463047027588,-0.17836801707744598,10.595539093017578
1689018017192893112,-0.260989785194397,-0.02556634694337845,-0.029827404767274857,1.5286977291107178,-0.28730419278144836,10.220847129821777
1689018017201893112,-0.24714134633541107,0.011717909015715122,0.027696875855326653,1.5275006294250488,-0.3076549172401428,9.950302124023438
1689018017211893112,-0.22477079927921295,0.049002163112163544,0.08202536404132843,1.4508862495422363,-0.2561795711517334,9.822212219238281
1689018017223940982,-0.1992044448852539,0.0788295716047287,0.11930961906909943,1.337161660194397,-0.19153612852096558,9.78989028930664
1689018017234940982,-0.17789916694164276,0.10013485699892044,0.1299622654914856,1.2449848651885986,-0.1388636976480484,9.75637149810791
1689018017242940982,-0.16085493564605713,0.11291802674531937,0.11291802674531937,1.1635819673538208,-0.10893617570400238,9.692925453186035
1689018017252940982,-0.15126754343509674,0.11398329585790634,0.06711165606975555,1.058237075805664,-0.09935937076807022,9.639056205749512
1689018017261940982,-0.1438107043504715,0.10333064943552017,0.001065264455974102,0.9493009448051453,-0.104147769510746,9.548076629638672
1689018017271940982,-0.13635385036468506,0.09054747968912125,-0.06711165606975555,0.8750807046890259,-0.11611878126859665,9.362525939941406
1689018017280940982,-0.13209278881549835,0.07563377171754837,-0.12463594228029251,0.8056488633155823,-0.11611878126859665,9.175777435302734
1689018017290940982,-0.1299622654914856,0.05752427875995636,-0.17044231295585632,0.7314286231994629,-0.08259996026754379,9.012971878051758
1689018017299940982,-0.13209278881549835,0.03834952041506767,-0.20240023732185364,0.6871358752250671,-0.03711012750864029,8.80467700958252
1689018017309940982,-0.13635385036468506,0.020240023732185364,-0.21944446861743927,0.6272808313369751,-0.016759412363171577,8.595184326171875
1689018017319940982,-0.14274543523788452,0.003195793367922306,-0.2269013226032257,0.5398924946784973,0.015562310814857483,8.458714485168457
1689018017328940982,-0.15233281254768372,-0.008522115647792816,-0.22157500684261322,0.46806642413139343,0.02753331884741783,8.380903244018555
1689018017337940982,-0.16085493564605713,-0.015978965908288956,-0.20666129887104034,0.39384618401527405,-0.02274491637945175,8.3521728515625
1689018017346940982,-0.16937704384326935,-0.022370552644133568,-0.1949433982372284,0.3411737382411957,-0.1412578970193863,8.382100105285645
1689018017356940982,-0.17044231295585632,-0.024501081556081772,-0.18216021358966827,0.333991140127182,-0.30526071786880493,8.315062522888184
1689018017365940982,-0.16298545897006989,-0.02130528911948204,-0.16298545897006989,0.3734954595565796,-0.447715699672699,8.210914611816406
1689018017376940982,-0.1438107043504715,-0.014913702383637428,-0.13848437368869781,0.424970805644989,-0.6177040338516235,8.072051048278809
1689018017385940982,-0.10972223430871964,-0.00532632227987051,-0.12463594228029251,0.4752490222454071,-0.7266402244567871,7.920019149780273
1689018017394940982,-0.06711165606975555,0.00532632227987051,-0.10759171098470688,0.5039794445037842,-0.7565677165985107,7.829039573669434
1689018017403940982,-0.015978965908288956,0.011717909015715122,-0.09161274135112762,0.4908113479614258,-0.7769184112548828,7.754819393157959
1689018017413940982,0.04048004746437073,0.011717909015715122,-0.07456851005554199,0.4405331015586853,-0.7242460250854492,7.7763671875
1689018017422940982,0.09693906456232071,0.01065264455974102,-0.058589544147253036,0.38786065578460693,-0.606930136680603,7.876923561096191
1689018017433940982,0.14700649678707123,0.011717909015715122,-0.04580637067556381,0.3711012601852417,-0.46327802538871765,8.019378662109375
1689018017441940982,0.1906823366880417,0.014913702383637428,-0.03834952041506767,0.37828385829925537,-0.355538934469223,8.131905555725098
1689018017451940982,0.2322276532649994,0.020240023732185364,-0.027696875855326653,0.40462008118629456,-0.2621650695800781,8.222885131835938
1689018017461940982,0.2727077007293701,0.026631610468029976,-0.024501081556081772,0.38307225704193115,-0.11611878126859665,8.342596054077148
1689018017470940982,0.3099919557571411,0.029827404767274857,-0.034088462591171265,0.3232172131538391,0.10175357013940811,8.463502883911133
1689018017479940982,0.33662354946136475,0.02876213937997818,-0.058589544147253036,0.2298433631658554,0.3818751573562622,8.649053573608398
1689018017489940982,0.3515372574329376,0.020240023732185364,-0.09161274135112762,0.05746084079146385,0.6536170244216919,8.919598579406738
1689018017498940982,0.3536677956581116,0.00532632227987051,-0.12357067316770554,-0.10773907601833344,0.8595184087753296,9.162610054016113
1689018017508940982,0.3430151343345642,-0.013848437927663326,-0.14168016612529755,-0.1628057062625885,1.0127472877502441,9.320627212524414
1689018017518940982,0.324905663728714,-0.03302319720387459,-0.14487595856189728,-0.11252747476100922,1.1085153818130493,9.38167953491211
1689018017527940982,0.3014698326587677,-0.047936901450157166,-0.14061491191387177,0.0035913025494664907,1.1683703660964966,9.396044731140137
1689018017536940982,0.27483823895454407,-0.05645901337265968,-0.12250541150569916,0.14484919607639313,1.2449848651885986,9.421183586120605
1689018017546940982,0.2460760921239853,-0.05965480953454971,-0.09480853378772736,0.23104046285152435,1.3503297567367554,9.524134635925293
1689018017555940982,0.21518342196941376,-0.06072007119655609,-0.06285060197114944,0.24061726033687592,1.456871747970581,9.682151794433594
1689018017564940982,0.18216021358966827,-0.05965480953454971,-0.027696875855326653,0.24899697303771973,1.5562310218811035,9.853337287902832
1689018017575940982,0.14594122767448425,-0.05752427875995636,0.007456851191818714,0.30885201692581177,1.6340426206588745,10.052055358886719
1689018017583940982,0.10972223430871964,-0.05645901337265968,0.04048004746437073,0.41778817772865295,1.6316484212875366,10.256759643554688
1689018017593940982,0.07456851005554199,-0.058589544147253036,0.07243797928094864,0.5303156971931458,1.5741876363754272,10.466252326965332
1689018017602940982,0.03515372797846794,-0.05645901337265968,0.09693906456232071,0.6248866319656372,1.5155296325683594,10.698490142822266
1689018017612940982,-0.008522115647792816,-0.052197955548763275,0.10865697264671326,0.7062894701957703,1.4329296350479126,10.963048934936523
1689018017622940982,-0.047936901450157166,-0.04367584362626076,0.10759171098470688,0.772130012512207,1.2916717529296875,11.194089889526367
1689018017631940982,-0.07989483326673508,-0.030892668291926384,0.10546118021011353,0.7972691655158997,1.094150185585022,11.341333389282227
1689018017640940982,-0.09587380290031433,-0.01065264455974102,0.12144014239311218,0.7817068696022034,0.9289502501487732,11.403582572937012
1689018017650940982,-0.09161274135112762,0.014913702383637428,0.16405072808265686,0.7589619159698486,0.8188169598579407,11.414356231689453
1689018017659940982,-0.07350324839353561,0.03621898964047432,0.20559602975845337,0.6572083830833435,0.7218518257141113,11.501745223999023
1689018017669940982,-0.05326322093605995,0.05006742849946022,0.2130528837442398,0.4752490222454071,0.6715735793113708,11.717223167419434
1689018017678940982,-0.04367584362626076,0.044741105288267136,0.1757686287164688,0.2513911724090576,0.6619967818260193,12.040440559387207
1689018017688940982,-0.0511326938867569,0.027696875855326653,0.10759171098470688,0.0011971008498221636,0.628477931022644,12.356474876403809
1689018017697940982,-0.07669904083013535,0.006391586735844612,0.03302319720387459,-0.21547815203666687,0.5398924946784973,12.495338439941406
1689018017707940982,-0.11398329585790634,-0.011717909015715122,-0.027696875855326653,-0.3711012601852417,0.39863458275794983,12.4354829788208
1689018017716940982,-0.14913702011108398,-0.023435818031430244,-0.06604639440774918,-0.43095630407333374,0.2454056739807129,12.234370231628418
1689018017726940982,-0.1768338978290558,-0.023435818031430244,-0.07350324839353561,-0.3926490843296051,0.09457096457481384,11.93868637084961
1689018017735940982,-0.1906823366880417,-0.01065264455974102,-0.05326322093605995,-0.2992752194404602,-0.06224924325942993,11.579556465148926
1689018017744940982,-0.19174760580062866,0.01065264455974102,-0.012783173471689224,-0.19153612852096558,-0.18076223134994507,11.256339073181152
1689018017754940982,-0.1810949593782425,0.037284255027770996,0.041545312851667404,-0.10534487664699554,-0.25498247146606445,10.975020408630371
1689018017763940982,-0.16298545897006989,0.06072007119655609,0.09374327212572098,-0.09935937076807022,-0.29209259152412415,10.781089782714844
1689018017773940982,-0.1438107043504715,0.08202536404132843,0.13848437368869781,-0.1759738177061081,-0.27054479718208313,10.682928085327148
1689018017783940982,-0.12463594228029251,0.10013485699892044,0.16831177473068237,-0.27054479718208313,-0.21428105235099792,10.57040023803711
1689018017792940982,-0.11078750342130661,0.11930961906909943,0.17896442115306854,-0.386663556098938,-0.15801730751991272,10.462660789489746
1689018017802940982,-0.09800432622432709,0.13741911947727203,0.17470337450504303,-0.5207388401031494,-0.07661445438861847,10.378864288330078
1689018017811940982,-0.08522115647792816,0.148071750998497,0.16085493564605713,-0.6452373266220093,0.020350713282823563,10.295066833496094
1689018017820940982,-0.07669904083013535,0.15446333587169647,0.13528858125209808,-0.7469909191131592,0.11851298063993454,10.198101997375488
1689018017830940982,-0.07030745595693588,0.1576591432094574,0.10120011866092682,-0.8200140595436096,0.1951274424791336,10.06043529510498
1689018017840940982,-0.06711165606975555,0.15446333587169647,0.055393751710653305,-0.8655039072036743,0.21547815203666687,9.866504669189453
1689018017849940982,-0.0649811327457428,0.14594122767448425,0.003195793367922306,-0.8535329103469849,0.24660277366638184,9.668983459472656
1689018017858940982,-0.06604639440774918,0.1395496428012848,-0.05965480953454971,-0.7577648162841797,0.2968810200691223,9.489418029785156
1689018017868940982,-0.07137271761894226,0.13741911947727203,-0.12144014239311218,-0.5997475385665894,0.3663128614425659,9.29189682006836
1689018017877940982,-0.08522115647792816,0.1438107043504715,-0.1768338978290558,-0.4058171808719635,0.43694180250167847,9.115922927856445
1689018017886940982,-0.10333064943552017,0.15446333587169647,-0.2173139452934265,-0.23343466222286224,0.41539397835731506,8.919598579406738
1689018017897940982,-0.12783172726631165,0.16831177473068237,-0.24181503057479858,-0.1256955862045288,0.31364041566848755,8.680177688598633
1689018017905940982,-0.1533980816602707,0.18002969026565552,-0.24394555389881134,-0.07182604819536209,0.15801730751991272,8.461108207702637
1689018017915940982,-0.17789916694164276,0.1896170675754547,-0.22903186082839966,-0.05267243832349777,-0.021547814831137657,8.238448143005371
1689018017924940982,-0.1949433982372284,0.19600865244865417,-0.20240023732185364,-0.05626373738050461,-0.19033902883529663,8.019378662109375
1689018017934940982,-0.20240023732185364,0.20026971399784088,-0.17044231295585632,-0.07541735470294952,-0.33279404044151306,7.820659637451172
1689018017944940982,-0.2034655064344406,0.20240023732185364,-0.13102751970291138,-0.08379705995321274,-0.424970805644989,7.678204536437988
1689018017953940982,-0.1949433982372284,0.20772656798362732,-0.0884169489145279,-0.08499415963888168,-0.46088382601737976,7.600393295288086
1689018017963940982,-0.18002969026565552,0.20985709130764008,-0.04687163606286049,-0.10055647045373917,-0.4692635238170624,7.548917770385742
1689018017972940982,-0.15978966653347015,0.2130528837442398,-0.001065264455974102,-0.17717091739177704,-0.4884171485900879,7.524975776672363
1689018017982940982,-0.13635385036468506,0.21411815285682678,0.04687163606286049,-0.3447650372982025,-0.4572925269603729,7.55011510848999
1689018017991940982,-0.1161138266324997,0.21198762953281403,0.10013485699892044,-0.569819986820221,-0.36152446269989014,7.612364292144775
1689018018000940982,-0.092678003013134,0.2034655064344406,0.15126754343509674,-0.8271966576576233,-0.2777273952960968,7.668627738952637
1689018018010940982,-0.06604639440774918,0.18855179846286774,0.185356006026268,-1.0570399761199951,-0.14844051003456116,7.772775650024414
1689018018019940982,-0.03941478580236435,0.16618125140666962,0.20666129887104034,-1.2006921768188477,-0.015562310814857483,7.936778545379639
1689018018029940982,-0.013848437927663326,0.13315805792808533,0.20772656798362732,-1.337161660194397,0.05746084079146385,8.11514663696289
1689018018039940982,0.013848437927663326,0.092678003013134,0.18855179846286774,-1.4532804489135742,0.12689268589019775,8.300697326660156
1689018018048940982,0.04261057823896408,0.052197955548763275,0.1672465205192566,-1.455674648284912,0.21308395266532898,8.464699745178223
1689018018057940982,0.07243797928094864,0.012783173471689224,0.14594122767448425,-1.3934253454208374,0.30526071786880493,8.629899978637695
1689018018066940982,0.10333064943552017,-0.023435818031430244,0.12250541150569916,-1.334767460823059,0.40701428055763245,8.787917137145996
1689018018076940982,0.13635385036468506,-0.05752427875995636,0.10120011866092682,-1.2773065567016602,0.5039794445037842,8.951919555664062
1689018018085940982,0.16618125140666962,-0.09374327212572098,0.08522115647792816,-1.212663173675537,0.6009446382522583,9.154230117797852
1689018018095940982,0.1906823366880417,-0.13102751970291138,0.07243797928094864,-1.1516109704971313,0.6919242739677429,9.372102737426758
1689018018104940982,0.21411815285682678,-0.16937704384326935,0.05645901337265968,-1.095347285270691,0.7553706169128418,9.551667213439941
1689018018114940982,0.23435817658901215,-0.2034655064344406,0.02556634694337845,-1.0414776802062988,0.8080430626869202,9.751583099365234
1689018018123940982,0.250337153673172,-0.23435817658901215,-0.023435818031430244,-0.9828197956085205,0.7876923680305481,9.964667320251465
1689018018133940982,0.2641855776309967,-0.260989785194397,-0.07776430249214172,-0.895431399345398,0.7254431247711182,10.160991668701172
1689018018143940982,0.27057716250419617,-0.28442561626434326,-0.1257012039422989,-0.7841010689735413,0.6823474764823914,10.438718795776367
1689018018152940982,0.26205503940582275,-0.30466562509536743,-0.16085493564605713,-0.651222825050354,0.6607996821403503,10.769119262695312
1689018018161940982,0.2364886999130249,-0.32170987129211426,-0.1810949593782425,-0.50876784324646,0.6416460275650024,11.117475509643555
1689018018171940982,0.19387812912464142,-0.3344930410385132,-0.19281286001205444,-0.38067805767059326,0.6452373266220093,11.459846496582031
1689018018181940982,0.14061491191387177,-0.3430151343345642,-0.1906823366880417,-0.2753331959247589,0.6859387755393982,11.736376762390137
1689018018190940982,0.0884169489145279,-0.34514567255973816,-0.1619201898574829,-0.181959331035614,0.7266402244567871,11.919532775878906
1689018018199940982,0.044741105288267136,-0.3387540876865387,-0.09906959533691406,-0.07422025501728058,0.7386112213134766,12.010512351989746
1689018018209940982,0.006391586735844612,-0.33662354946136475,-0.037284255027770996,0.009576806798577309,0.7026981711387634,12.109871864318848
1689018018218940982,-0.03302319720387459,-0.35047200322151184,-0.013848437927663326,0.04429272934794426,0.6476315259933472,12.302605628967285
1689018018228940982,-0.07350324839353561,-0.3802993893623352,-0.020240023732185364,0.07182604819536209,0.6045359373092651,12.521675109863281
1689018018237940982,-0.12144014239311218,-0.41545313596725464,-0.04261057823896408,0.19632454216480255,0.5805938839912415,12.654552459716797
1689018018247940982,-0.1810949593782425,-0.4410194754600525,-0.06817692518234253,0.46567222476005554,0.4991910457611084,12.646173477172852
1689018018256940982,-0.24820661544799805,-0.44847631454467773,-0.09374327212572098,0.7972691655158997,0.3064578175544739,12.460622787475586
1689018018266940982,-0.3142530024051666,-0.4314320981502533,-0.11291802674531937,1.1192892789840698,0.033518824726343155,12.132616996765137
1689018018275940982,-0.36858150362968445,-0.39201730489730835,-0.11078750342130661,1.4197615385055542,-0.26815059781074524,11.704054832458496
1689018018284940982,-0.4026699662208557,-0.33236250281333923,-0.07989483326673508,1.6974890232086182,-0.5159504413604736,11.226411819458008
1689018018294940982,-0.4175836443901062,-0.2556634545326233,-0.026631610468029976,1.9069815874099731,-0.6931213736534119,10.813411712646484
1689018018303940982,-0.4122573435306549,-0.17257283627986908,0.03302319720387459,2.032677173614502,-0.8224082589149475,10.509347915649414
1689018018313940982,-0.3941478431224823,-0.09693906456232071,0.0788295716047287,2.076969861984253,-0.872686505317688,10.374075889587402
1689018018323940982,-0.3675162196159363,-0.03621898964047432,0.10972223430871964,2.0386626720428467,-0.9289502501487732,10.321403503417969
1689018018332940982,-0.3387540876865387,0.012783173471689224,0.10333064943552017,1.9632453918457031,-0.9361328482627869,10.348937034606934
1689018018341940982,-0.31318774819374084,0.0511326938867569,0.06072007119655609,1.889025092124939,-0.8391676545143127,10.451887130737305
1689018018351940982,-0.296143501996994,0.0788295716047287,0.001065264455974102,1.8375498056411743,-0.7829039692878723,10.474632263183594
1689018018360940982,-0.2865561246871948,0.10439591109752655,-0.0649811327457428,1.790862798690796,-0.7541735172271729,10.36689281463623
1689018018370940982,-0.287621408700943,0.12783172726631165,-0.12889699637889862,1.7142484188079834,-0.7481880187988281,10.17296314239502
1689018018379940982,-0.2918824553489685,0.14487595856189728,-0.18748654425144196,1.5849615335464478,-0.7817068696022034,9.953893661499023
1689018018389940982,-0.29507824778556824,0.15872439742088318,-0.23435817658901215,1.40180504322052,-0.8032546639442444,9.732429504394531
1689018018398940982,-0.296143501996994,0.16618125140666962,-0.26738137006759644,1.2030863761901855,-0.8307879567146301,9.518148422241211
1689018018408940982,-0.29401299357414246,0.16511598229408264,-0.28975191712379456,1.0271124839782715,-0.9157821536064148,9.295488357543945
1689018018417940982,-0.28442561626434326,0.15872439742088318,-0.29933929443359375,0.8894459009170532,-1.0103530883789062,9.075221061706543
1689018018427940982,-0.27057716250419617,0.15233281254768372,-0.2908172011375427,0.788889467716217,-1.091755986213684,8.853757858276367
1689018018436940982,-0.25246766209602356,0.1438107043504715,-0.2684466242790222,0.6991068720817566,-1.1851298809051514,8.689754486083984
1689018018445940982,-0.23116238415241241,0.13635385036468506,-0.23755396902561188,0.5793967843055725,-1.278503656387329,8.547300338745117
1689018018455940982,-0.2034655064344406,0.12357067316770554,-0.20240023732185364,0.43095630407333374,-1.3239935636520386,8.437166213989258
1689018018464940982,-0.17257283627986908,0.10972223430871964,-0.16298545897006989,0.3196259140968323,-1.3227964639663696,8.423998832702637
1689018018475940982,-0.13848437368869781,0.09800432622432709,-0.13209278881549835,0.2717418968677521,-1.2904746532440186,8.414422035217285
1689018018483940982,-0.09906959533691406,0.0884169489145279,-0.1065264418721199,0.26336216926574707,-1.2437877655029297,8.35336971282959
1689018018493940982,-0.05432848632335663,0.08309062570333481,-0.08415588736534119,0.29209259152412415,-1.1971008777618408,8.299500465393066
1689018018503940982,-0.007456851191818714,0.08202536404132843,-0.06711165606975555,0.3280056416988373,-1.1288660764694214,8.258798599243164
1689018018512940982,0.041545312851667404,0.08415588736534119,-0.05432848632335663,0.3579331338405609,-1.0223240852355957,8.209717750549316
1689018018521940982,0.09161274135112762,0.08948221057653427,-0.044741105288267136,0.38307225704193115,-0.871489405632019,8.200140953063965
1689018018531940982,0.13848437368869781,0.09800432622432709,-0.03941478580236435,0.40940847992897034,-0.6548141837120056,8.255207061767578
1689018018540940982,0.17470337450504303,0.1065264418721199,-0.03834952041506767,0.44173020124435425,-0.38786065578460693,8.376114845275879
1689018018550940982,0.20133498311042786,0.11717908829450607,-0.04261057823896408,0.47644612193107605,-0.11971008032560349,8.525752067565918
1689018018559940982,0.21944446861743927,0.12676647305488586,-0.055393751710653305,0.5446808934211731,0.11851298063993454,8.667010307312012
1689018018569940982,0.23116238415241241,0.13635385036468506,-0.07563377171754837,0.5973533391952515,0.325611412525177,8.798690795898438
1689018018578940982,0.23435817658901215,0.148071750998497,-0.09800432622432709,0.6117185354232788,0.4991910457611084,8.941145896911621
1689018018587940982,0.23009711503982544,0.1576591432094574,-0.11824434995651245,0.6045359373092651,0.6021417379379272,9.069235801696777
1689018018597940982,0.21944446861743927,0.16618125140666962,-0.13209278881549835,0.5638344883918762,0.6212953329086304,9.14585018157959
1689018018606940982,0.20559602975845337,0.17363810539245605,-0.13528858125209808,0.5003881454467773,0.6200982332229614,9.199719429016113
1689018018616940982,0.1906823366880417,0.17789916694164276,-0.1299622654914856,0.4141968786716461,0.6452373266220093,9.301473617553711
1689018018625940982,0.17363810539245605,0.18002969026565552,-0.11717908829450607,0.3387795388698578,0.6584054827690125,9.424775123596191
1689018018635940982,0.1576591432094574,0.18002969026565552,-0.10013485699892044,0.27413609623908997,0.6500257253646851,9.521739959716797
1689018018645940982,0.14274543523788452,0.17789916694164276,-0.0788295716047287,0.22505494952201843,0.6248866319656372,9.60912799835205
1689018018654940982,0.1342233121395111,0.17363810539245605,-0.05326322093605995,0.2190694510936737,0.5506663918495178,9.677363395690918
1689018018663940982,0.13315805792808533,0.16937704384326935,-0.026631610468029976,0.2238578498363495,0.47165772318840027,9.765948295593262
1689018018673940982,0.13741911947727203,0.1576591432094574,0.0,0.20470423996448517,0.41778817772865295,9.8784761428833
1689018018682940982,0.14487595856189728,0.14274543523788452,0.024501081556081772,0.181959331035614,0.3711012601852417,10.010157585144043
1689018018692940982,0.15872439742088318,0.12463594228029251,0.047936901450157166,0.17717091739177704,0.3208230137825012,10.18493366241455
1689018018702940982,0.17257283627986908,0.10439591109752655,0.06285060197114944,0.15801730751991272,0.2801215946674347,10.412383079528809
1689018018711940982,0.1810949593782425,0.07776430249214172,0.06817692518234253,0.11252747476100922,0.30526071786880493,10.675745010375977
1689018018720940982,0.17896442115306854,0.05006742849946022,0.06391586363315582,0.05746084079146385,0.3519476354122162,10.94150161743164
1689018018729940982,0.16618125140666962,0.024501081556081772,0.055393751710653305,0.023942016065120697,0.3471592366695404,11.170147895812988
1689018018739940982,0.15020228922367096,0.006391586735844612,0.052197955548763275,0.035913024097681046,0.3064578175544739,11.316194534301758
1689018018748940982,0.14168016612529755,-0.007456851191818714,0.06817692518234253,0.06823474913835526,0.2717418968677521,11.39520263671875
1689018018759940982,0.14061491191387177,-0.019174760207533836,0.09906959533691406,0.0694318488240242,0.26815059781074524,11.461043357849121
1689018018767940982,0.14168016612529755,-0.03195793181657791,0.1203748807311058,-0.009576806798577309,0.27413609623908997,11.613075256347656
1689018018777940982,0.13528858125209808,-0.0511326938867569,0.1161138266324997,-0.16879121959209442,0.3064578175544739,11.876437187194824
1689018018786940982,0.11078750342130661,-0.07563377171754837,0.092678003013134,-0.36990416049957275,0.38307225704193115,12.247538566589355
1689018018796940982,0.06178533658385277,-0.10439591109752655,0.055393751710653305,-0.5626373887062073,0.4321534037590027,12.624625205993652
1689018018805940982,-0.007456851191818714,-0.13635385036468506,0.006391586735844612,-0.7074865698814392,0.3974374830722809,12.864045143127441
1689018018815940982,-0.08735168725252151,-0.16298545897006989,-0.03302319720387459,-0.7541735172271729,0.24779987335205078,12.88798713684082
1689018018824940982,-0.16511598229408264,-0.18002969026565552,-0.049002163112163544,-0.7038952708244324,-0.0071826050989329815,12.676100730895996
1689018018834940982,-0.22903186082839966,-0.18642127513885498,-0.04261057823896408,-0.5985504388809204,-0.2992752194404602,12.306196212768555
1689018018844940982,-0.27164241671562195,-0.18322548270225525,-0.019174760207533836,-0.48123452067375183,-0.5853822827339172,11.901576042175293
1689018018853940982,-0.29401299357414246,-0.17470337450504303,0.014913702383637428,-0.3627215623855591,-0.8750807046890259,11.547234535217285
1689018018862940982,-0.3004045784473419,-0.15872439742088318,0.058589544147253036,-0.30286651849746704,-1.0857704877853394,11.232397079467773
1689018018872940982,-0.296143501996994,-0.14168016612529755,0.10439591109752655,-0.3387795388698578,-1.216254472732544,10.989385604858398
1689018018881940982,-0.28442561626434326,-0.1203748807311058,0.1438107043504715,-0.3363853394985199,-1.316810965538025,10.72841739654541
1689018018891940982,-0.2641855776309967,-0.09800432622432709,0.18642127513885498,-0.39145198464393616,-1.357512354850769,10.557231903076172
1689018018900940982,-0.24501082301139832,-0.07563377171754837,0.2173139452934265,-0.44173020124435425,-1.315613865852356,10.418368339538574
1689018018910940982,-0.22903186082839966,-0.052197955548763275,0.23968449234962463,-0.46088382601737976,-1.2186486721038818,10.250774383544922
1689018018919940982,-0.2087918221950531,-0.02876213937997818,0.25246766209602356,-0.5614402890205383,-1.1216834783554077,10.156203269958496
1689018018929940982,-0.18216021358966827,-0.009587380103766918,0.24820661544799805,-0.6177040338516235,-0.9923965930938721,9.989806175231934
1689018018938940982,-0.15233281254768372,0.002130528911948204,0.23329290747642517,-0.6332663297653198,-0.8439561128616333,9.830592155456543
1689018018947940982,-0.12463594228029251,0.007456851191818714,0.21198762953281403,-0.6380547285079956,-0.712274968624115,9.707290649414062
1689018018957940982,-0.10013485699892044,0.008522115647792816,0.18855179846286774,-0.6380547285079956,-0.5937620401382446,9.564835548400879
1689018018966940982,-0.08735168725252151,0.00532632227987051,0.15978966653347015,-0.6596025824546814,-0.4884171485900879,9.437942504882812
1689018018976940982,-0.08309062570333481,-0.002130528911948204,0.12889699637889862,-0.6739677786827087,-0.42018237709999084,9.319430351257324
1689018018986940982,-0.08522115647792816,-0.013848437927663326,0.10013485699892044,-0.629675030708313,-0.40940847992897034,9.175777435302734
1689018018995940982,-0.092678003013134,-0.024501081556081772,0.08202536404132843,-0.5123591423034668,-0.42856210470199585,8.959102630615234
1689018019005940982,-0.1022653877735138,-0.03621898964047432,0.0788295716047287,-0.3411737382411957,-0.4704606235027313,8.688557624816895
1689018019014940982,-0.11291802674531937,-0.04261057823896408,0.08309062570333481,-0.16519992053508759,-0.529118537902832,8.42040729522705
1689018019024940982,-0.12250541150569916,-0.04367584362626076,0.09800432622432709,-0.005985504016280174,-0.6021417379379272,8.17500114440918
1689018019033940982,-0.12676647305488586,-0.04367584362626076,0.1203748807311058,0.1149216815829277,-0.712274968624115,7.939172744750977
1689018019042940982,-0.12250541150569916,-0.04048004746437073,0.14487595856189728,0.1867477297782898,-0.8092401623725891,7.710526466369629
1689018019052940982,-0.10865697264671326,-0.03515372797846794,0.16618125140666962,0.23104046285152435,-0.8631097078323364,7.4998369216918945
1689018019061940982,-0.08096009492874146,-0.030892668291926384,0.17896442115306854,0.24899697303771973,-0.8834604024887085,7.332242488861084
1689018019070940982,-0.04367584362626076,-0.027696875855326653,0.18429075181484222,0.26336216926574707,-0.8655039072036743,7.222109317779541
1689018019080940982,0.0,-0.023435818031430244,0.1810949593782425,0.30286651849746704,-0.7948749661445618,7.171831130981445
1689018019089940982,0.04687163606286049,-0.02130528911948204,0.1715075671672821,0.31842881441116333,-0.6655880808830261,7.214926719665527
1689018019099940982,0.08948221057653427,-0.017044231295585632,0.15552860498428345,0.30286651849746704,-0.4908113479614258,7.333439826965332
1689018019109940982,0.1257012039422989,-0.008522115647792816,0.13848437368869781,0.26575639843940735,-0.29448679089546204,7.492654323577881
1689018019118940982,0.15233281254768372,-0.001065264455974102,0.12676647305488586,0.1999158412218094,-0.1173158809542656,7.6746134757995605
1689018019128940982,0.17363810539245605,0.003195793367922306,0.11930961906909943,0.1149216815829277,0.019153613597154617,7.842207431793213
1689018019137940982,0.19174760580062866,0.002130528911948204,0.1065264418721199,0.008379706181585789,0.11971008032560349,8.000225067138672
1689018019146940982,0.2087918221950531,-0.007456851191818714,0.08522115647792816,-0.10534487664699554,0.20470423996448517,8.191761016845703
1689018019156940982,0.22477079927921295,-0.022370552644133568,0.05752427875995636,-0.23104046285152435,0.29448679089546204,8.462306022644043
1689018019165940982,0.23755396902561188,-0.04580637067556381,0.02556634694337845,-0.3627215623855591,0.3890577554702759,8.779537200927734
1689018019175940982,0.250337153673172,-0.07350324839353561,-0.00532632227987051,-0.46806642413139343,0.48602294921875,9.068038940429688
1689018019184940982,0.2599245309829712,-0.10546118021011353,-0.03515372797846794,-0.5530605912208557,0.5925649404525757,9.331400871276855
1689018019194940982,0.26631611585617065,-0.13848437368869781,-0.05752427875995636,-0.5973533391952515,0.712274968624115,9.587580680847168
1689018019203940982,0.2641855776309967,-0.17044231295585632,-0.07456851005554199,-0.5829880833625793,0.8403647541999817,9.828197479248047
1689018019213940982,0.2545982003211975,-0.20026971399784088,-0.08628641813993454,-0.5267243385314941,0.9696516990661621,10.044873237609863
1689018019223940982,0.23968449234962463,-0.22477079927921295,-0.09161274135112762,-0.4489127993583679,1.0630255937576294,10.220847129821777
1689018019232940982,0.22370553016662598,-0.24501082301139832,-0.092678003013134,-0.36990416049957275,1.1061211824417114,10.377667427062988
1689018019241940982,0.2087918221950531,-0.2631203234195709,-0.09587380290031433,-0.2932896912097931,1.0821791887283325,10.529699325561523
1689018019250940982,0.19174760580062866,-0.28122982382774353,-0.1022653877735138,-0.22864626348018646,1.0498573780059814,10.681730270385742
1689018019260940982,0.17363810539245605,-0.3014698326587677,-0.10972223430871964,-0.15921440720558167,1.0283095836639404,10.83974838256836
1689018019270940982,0.15446333587169647,-0.32277512550354004,-0.1203748807311058,-0.05985504016280174,1.0067617893218994,11.006145477294922
1689018019279940982,0.13102751970291138,-0.3398193418979645,-0.12889699637889862,0.05506663769483566,0.9888052940368652,11.173739433288574
1689018019289940982,0.10013485699892044,-0.3515372574329376,-0.14168016612529755,0.1628057062625885,0.9624690413475037,11.33654499053955
1689018019298940982,0.06285060197114944,-0.35473304986953735,-0.15552860498428345,0.27892449498176575,0.912190854549408,11.499350547790527
1689018019308940982,0.022370552644133568,-0.34940674901008606,-0.16298545897006989,0.3974374830722809,0.8104372620582581,11.6430025100708
1689018019317940982,-0.011717909015715122,-0.33555829524993896,-0.15659387409687042,0.5027823448181152,0.7026981711387634,11.738770484924316
1689018019326940982,-0.037284255027770996,-0.3142530024051666,-0.12463594228029251,0.591367781162262,0.6428431272506714,11.797429084777832
1689018019337940982,-0.049002163112163544,-0.28975191712379456,-0.07776430249214172,0.667982280254364,0.6045359373092651,11.868057250976562
1689018019345940982,-0.05326322093605995,-0.27164241671562195,-0.04687163606286049,0.7553706169128418,0.5781996846199036,12.000935554504395
1689018019355940982,-0.06285060197114944,-0.2631203234195709,-0.05752427875995636,0.894234299659729,0.5602431893348694,12.214019775390625
1689018019364940982,-0.08202536404132843,-0.2641855776309967,-0.10865697264671326,1.0797849893569946,0.5422866940498352,12.413935661315918
1689018019374940982,-0.10972223430871964,-0.2641855776309967,-0.1715075671672821,1.2952630519866943,0.4620809257030487,12.453439712524414
1689018019383940982,-0.14168016612529755,-0.2545982003211975,-0.23968449234962463,1.5167267322540283,0.2861070930957794,12.279860496520996
1689018019393940982,-0.1715075671672821,-0.23435817658901215,-0.29827404022216797,1.6280571222305298,-0.017956512048840523,12.009315490722656
1689018019402940982,-0.19707392156124115,-0.20559602975845337,-0.3440804183483124,1.7202339172363281,-0.4225766062736511,11.537657737731934
1689018019412940982,-0.2045307755470276,-0.16618125140666962,-0.36005938053131104,1.8315643072128296,-0.788889467716217,10.954669952392578
1689018019421940982,-0.1906823366880417,-0.11824434995651245,-0.3440804183483124,1.91057288646698,-1.0690110921859741,10.439916610717773
1689018019431940982,-0.15552860498428345,-0.0649811327457428,-0.3004045784473419,2.011129379272461,-1.2330138683319092,9.980229377746582
1689018019440940982,-0.10333064943552017,-0.01065264455974102,-0.2407497614622116,2.0889408588409424,-1.279700756072998,9.701305389404297
1689018019450940982,-0.04580637067556381,0.041545312851667404,-0.1810949593782425,2.0829553604125977,-1.180341362953186,9.655815124511719
1689018019459940982,0.00532632227987051,0.08628641813993454,-0.13102751970291138,1.9716250896453857,-0.9780313968658447,9.797073364257812
1689018019469940982,0.03515372797846794,0.11930961906909943,-0.1065264418721199,1.8183962106704712,-0.7637503147125244,9.951498985290527
1689018019478940982,0.044741105288267136,0.1395496428012848,-0.10865697264671326,1.646013617515564,-0.547075092792511,10.049661636352539
1689018019487940982,0.03941478580236435,0.14700649678707123,-0.13528858125209808,1.4844050407409668,-0.3663128614425659,10.036493301391602
1689018019497940982,0.024501081556081772,0.14487595856189728,-0.18216021358966827,1.3742717504501343,-0.23822306096553802,9.864110946655273
1689018019506940982,0.004261057823896408,0.13848437368869781,-0.24181503057479858,1.2868833541870117,-0.14844051003456116,9.623493194580078
1689018019516940982,-0.022370552644133568,0.12889699637889862,-0.29933929443359375,1.2078747749328613,-0.09935937076807022,9.385270118713379
1689018019525940982,-0.052197955548763275,0.11398329585790634,-0.3440804183483124,1.1264718770980835,-0.06703764945268631,9.135076522827148
1689018019535940982,-0.08415588736534119,0.09480853378772736,-0.3717772960662842,1.0055646896362305,-0.03711012750864029,8.900444984436035
1689018019544940982,-0.11504855751991272,0.07243797928094864,-0.3845604658126831,0.8619126081466675,-0.0454898327589035,8.725667953491211
1689018019554940982,-0.14168016612529755,0.044741105288267136,-0.3930825889110565,0.7338228225708008,-0.10893617570400238,8.580819129943848
1689018019564940982,-0.1576591432094574,0.015978965908288956,-0.38775625824928284,0.6272808313369751,-0.18076223134994507,8.378508567810059
1689018019573940982,-0.16298545897006989,-0.007456851191818714,-0.3760383427143097,0.5518634915351868,-0.2537853717803955,8.155847549438477
1689018019582940982,-0.15872439742088318,-0.023435818031430244,-0.35899412631988525,0.49559974670410156,-0.3280056416988373,7.996633529663086
1689018019592940982,-0.1438107043504715,-0.029827404767274857,-0.33662354946136475,0.47405192255973816,-0.3926490843296051,7.857769966125488
1689018019601940982,-0.1203748807311058,-0.03195793181657791,-0.3110572099685669,0.4728548228740692,-0.4513069987297058,7.747636795043945
1689018019610940982,-0.0884169489145279,-0.030892668291926384,-0.2865561246871948,0.47165772318840027,-0.5099649429321289,7.645883083343506
1689018019620940982,-0.047936901450157166,-0.027696875855326653,-0.25779399275779724,0.4991910457611084,-0.569819986820221,7.578845500946045
1689018019630940982,-0.002130528911948204,-0.02556634694337845,-0.22370553016662598,0.5339069962501526,-0.6153098344802856,7.564480304718018
1689018019639940982,0.047936901450157166,-0.026631610468029976,-0.18642127513885498,0.5578489899635315,-0.6212953329086304,7.540538311004639
1689018019648940982,0.1022653877735138,-0.02556634694337845,-0.15659387409687042,0.5770025849342346,-0.5853822827339172,7.542932510375977
1689018019658940982,0.15659387409687042,-0.02556634694337845,-0.1299622654914856,0.5889735817909241,-0.5386953949928284,7.597999095916748
1689018019667940982,0.21518342196941376,-0.027696875855326653,-0.10546118021011353,0.6153098344802856,-0.5183446407318115,7.668627738952637
1689018019677940982,0.27590349316596985,-0.029827404767274857,-0.0788295716047287,0.6560112833976746,-0.49320554733276367,7.728482723236084
1689018019686940982,0.3344930410385132,-0.029827404767274857,-0.05645901337265968,0.6799532771110535,-0.4010287821292877,7.830236434936523
1689018019696940982,0.38669100403785706,-0.02876213937997818,-0.04048004746437073,0.6308721303939819,-0.2346317619085312,8.02536392211914
1689018019705940982,0.4271710515022278,-0.026631610468029976,-0.03195793181657791,0.48123452067375183,0.023942016065120697,8.323442459106445
1689018019712980943,0.45167210698127747,-0.02556634694337845,-0.03621898964047432,0.27413609623908997,0.325611412525177,8.69214916229248
1689018019721980943,0.46232476830482483,-0.024501081556081772,-0.05432848632335663,0.09696516394615173,0.6380547285079956,9.131484985351562
1689018019731980943,0.45273739099502563,-0.01810949482023716,-0.07243797928094864,0.06823474913835526,1.016338586807251,9.600749015808105
1689018019740980943,0.42930155992507935,-0.009587380103766918,-0.08628641813993454,0.14604629576206207,1.2737152576446533,9.908403396606445
1689018019750980943,0.3952130973339081,0.001065264455974102,-0.08948221057653427,0.25019407272338867,1.3922282457351685,10.077195167541504
1689018019759980943,0.35047200322151184,0.01065264455974102,-0.06817692518234253,0.39384618401527405,1.460463047027588,10.202890396118164
1689018019769980943,0.3004045784473419,0.01810949482023716,-0.022370552644133568,0.5506663918495178,1.4472949504852295,10.291476249694824
1689018019778980943,0.24820661544799805,0.02876213937997818,0.04367584362626076,0.727837324142456,1.4281412363052368,10.377667427062988
1689018019788980943,0.20026971399784088,0.04261057823896408,0.11717908829450607,0.9229647517204285,1.4053963422775269,10.436325073242188
1689018019798980943,0.15659387409687042,0.06285060197114944,0.18642127513885498,1.113303780555725,1.3407529592514038,10.492588996887207
1689018019807980943,0.1257012039422989,0.0884169489145279,0.2514024078845978,1.2940659523010254,1.2701239585876465,10.579977035522461
1689018019816980943,0.10439591109752655,0.1161138266324997,0.29933929443359375,1.4544775485992432,1.161187767982483,10.674548149108887
1689018019826980943,0.09054747968912125,0.14594122767448425,0.3291667103767395,1.5753847360610962,0.99479079246521,10.802638053894043
1689018019835980943,0.08096009492874146,0.17044231295585632,0.34088462591171265,1.6328455209732056,0.8738836050033569,11.002553939819336
1689018019844980943,0.06924218684434891,0.19281286001205444,0.33129724860191345,1.6053122282028198,0.8080430626869202,11.21563720703125
1689018019855980943,0.05752427875995636,0.21198762953281403,0.30786141753196716,1.5191209316253662,0.7589619159698486,11.390414237976074
1689018019864980943,0.0511326938867569,0.2269013226032257,0.28122982382774353,1.404199242591858,0.7445967197418213,11.536460876464844
1689018019873980943,0.044741105288267136,0.23435817658901215,0.24927188456058502,1.256955862045288,0.7673416137695312,11.70046329498291
1689018019883980943,0.03621898964047432,0.22477079927921295,0.1992044448852539,1.0773907899856567,0.8463503122329712,11.994950294494629
1689018019892980943,0.007456851191818714,0.1992044448852539,0.13635385036468506,0.8822633028030396,0.993593692779541,12.45703125
1689018019901980943,-0.05006742849946022,0.16511598229408264,0.07243797928094864,0.6847416758537292,1.072602391242981,12.980164527893066
1689018019911980943,-0.13528858125209808,0.12676647305488586,0.02876213937997818,0.5518634915351868,1.0103530883789062,13.345279693603516
1689018019920980943,-0.2364886999130249,0.09480853378772736,0.004261057823896408,0.48602294921875,0.8427590131759644,13.457807540893555
1689018019930980943,-0.33662354946136475,0.07563377171754837,-0.011717909015715122,0.3902548849582672,0.5722141861915588,13.328520774841309
1689018019939980943,-0.41971418261528015,0.06924218684434891,-0.020240023732185364,0.2932896912097931,0.21787235140800476,13.0112886428833
1689018019949980943,-0.4783037304878235,0.07669904083013535,-0.013848437927663326,0.2777273952960968,-0.14006079733371735,12.589909553527832
1689018019958980943,-0.5102616548538208,0.09480853378772736,0.004261057823896408,0.3148375153541565,-0.44651859998703003,12.12902545928955
1689018019968980943,-0.5209143161773682,0.11930961906909943,0.026631610468029976,0.3543418347835541,-0.7254431247711182,11.743558883666992
1689018019977980943,-0.5145227313041687,0.1438107043504715,0.05006742849946022,0.37828385829925537,-0.9409212470054626,11.446678161621094
1689018019987980943,-0.4964132308959961,0.16618125140666962,0.06924218684434891,0.3711012601852417,-1.0522515773773193,11.261127471923828
1689018019996980943,-0.471912145614624,0.1896170675754547,0.08202536404132843,0.3794809579849243,-1.1324573755264282,11.085153579711914
1689018020006980943,-0.445280522108078,0.20772656798362732,0.08522115647792816,0.355538934469223,-1.2018892765045166,10.860098838806152
1689018020015980943,-0.41971418261528015,0.22477079927921295,0.08522115647792816,0.1999158412218094,-1.2102689743041992,10.69609546661377
1689018020024980943,-0.399474173784256,0.24394555389881134,0.08202536404132843,0.017956512048840523,-1.192312479019165,10.524910926818848
1689018020034980943,-0.3834952116012573,0.2652508318424225,0.07350324839353561,-0.10295066982507706,-1.192312479019165,10.26394271850586
1689018020043980943,-0.36964675784111023,0.2886866629123688,0.06711165606975555,-0.18914192914962769,-1.212663173675537,9.99459457397461
1689018020054980943,-0.35473304986953735,0.3142530024051666,0.06924218684434891,-0.2561795711517334,-1.2258312702178955,9.750386238098145
1689018020062980943,-0.3376888334751129,0.3376888334751129,0.07776430249214172,-0.3292027413845062,-1.237802267074585,9.503783226013184
1689018020072980943,-0.3206445872783661,0.3557983338832855,0.08309062570333481,-0.3926490843296051,-1.2330138683319092,9.249998092651367
1689018020082980943,-0.3025350868701935,0.36858150362968445,0.08522115647792816,-0.44412440061569214,-1.1899182796478271,9.028534889221191
1689018020091980943,-0.2822950780391693,0.3749730885028839,0.0884169489145279,-0.4920084476470947,-1.157596468925476,8.83819580078125
1689018020100980943,-0.2652508318424225,0.3760383427143097,0.09374327212572098,-0.5135562419891357,-1.1468225717544556,8.663418769836426
1689018020110980943,-0.250337153673172,0.3717772960662842,0.1022653877735138,-0.5123591423034668,-1.1432312726974487,8.487444877624512
1689018020119980943,-0.2364886999130249,0.35899412631988525,0.11824434995651245,-0.5027823448181152,-1.1336544752120972,8.287528991699219
1689018020129980943,-0.22370553016662598,0.3419498801231384,0.13528858125209808,-0.49799394607543945,-1.116895079612732,8.136693954467773
1689018020138980943,-0.2130528837442398,0.3195793330669403,0.14274543523788452,-0.5099649429321289,-1.1109095811843872,7.989450931549072
1689018020148980943,-0.20133498311042786,0.2929477095603943,0.14061491191387177,-0.5410895943641663,-1.1252747774124146,7.866149425506592
1689018020157980943,-0.1896170675754547,0.260989785194397,0.13528858125209808,-0.591367781162262,-1.1312602758407593,7.772775650024414
1689018020167980943,-0.17257283627986908,0.22477079927921295,0.12676647305488586,-0.6368576288223267,-1.1324573755264282,7.665036678314209
1689018020176980943,-0.14913702011108398,0.18642127513885498,0.11824434995651245,-0.651222825050354,-1.1252747774124146,7.565677165985107
1689018020186980943,-0.12250541150569916,0.14913702011108398,0.11185276508331299,-0.6500257253646851,-1.0857704877853394,7.4770917892456055
1689018020195980943,-0.09054747968912125,0.11185276508331299,0.10333064943552017,-0.6416460275650024,-1.0235211849212646,7.433996200561523
1689018020205980943,-0.058589544147253036,0.07776430249214172,0.09800432622432709,-0.6212953329086304,-0.9301473498344421,7.444769859313965
1689018020214980943,-0.029827404767274857,0.04580637067556381,0.10013485699892044,-0.6141127347946167,-0.8020575642585754,7.535749912261963
1689018020224980943,-0.006391586735844612,0.019174760207533836,0.10546118021011353,-0.6260837316513062,-0.6703764796257019,7.709329128265381
1689018020233980943,0.009587380103766918,-0.007456851191818714,0.10865697264671326,-0.6943184733390808,-0.5542576909065247,7.934384346008301
1689018020242980943,0.014913702383637428,-0.03621898964047432,0.10972223430871964,-0.8307879567146301,-0.43095630407333374,8.198943138122559
1689018020252980943,0.014913702383637428,-0.07030745595693588,0.11185276508331299,-0.9516951441764832,-0.36152446269989014,8.457517623901367
1689018020261980943,0.01065264455974102,-0.10972223430871964,0.11824434995651245,-1.0199298858642578,-0.3711012601852417,8.652645111083984
1689018020271980943,0.006391586735844612,-0.148071750998497,0.13315805792808533,-1.059434175491333,-0.40462008118629456,8.790311813354492
1689018020280980943,0.002130528911948204,-0.1810949593782425,0.15020228922367096,-1.0450689792633057,-0.45010989904403687,8.898050308227539
1689018020290980943,0.003195793367922306,-0.20559602975845337,0.17044231295585632,-0.9840168952941895,-0.4991910457611084,8.99860668182373
1689018020299980943,0.00532632227987051,-0.21944446861743927,0.1896170675754547,-0.9026139974594116,-0.5147533416748047,9.105149269104004
1689018020309980943,0.011717909015715122,-0.22583605349063873,0.20559602975845337,-0.7924807667732239,-0.5039794445037842,9.226056098937988
1689018020319980943,0.020240023732185364,-0.222640261054039,0.22796659171581268,-0.6631938815116882,-0.47405192255973816,9.329007148742676
1689018020328980943,0.030892668291926384,-0.20985709130764008,0.2556634545326233,-0.5303156971931458,-0.43095630407333374,9.427168846130371
1689018020337980943,0.044741105288267136,-0.18855179846286774,0.2822950780391693,-0.42377370595932007,-0.3974374830722809,9.557653427124023
1689018020346980943,0.06072007119655609,-0.16405072808265686,0.29933929443359375,-0.34835633635520935,-0.355538934469223,9.72404956817627
1689018020356980943,0.0788295716047287,-0.13741911947727203,0.30360037088394165,-0.2885012924671173,-0.28730419278144836,9.928753852844238
1689018020365980943,0.09800432622432709,-0.11398329585790634,0.2972087860107422,-0.24181437492370605,-0.1951274424791336,10.15261173248291
1689018020376980943,0.11398329585790634,-0.09587380290031433,0.28122982382774353,-0.23343466222286224,-0.08259996026754379,10.414776802062988
1689018020384980943,0.12357067316770554,-0.08628641813993454,0.2545982003211975,-0.23343466222286224,0.019153613597154617,10.715249061584473
1689018020394980943,0.12250541150569916,-0.08309062570333481,0.22583605349063873,-0.21667525172233582,0.0933738648891449,11.027692794799805
1689018020404980943,0.11185276508331299,-0.08522115647792816,0.19174760580062866,-0.19153612852096558,0.13168108463287354,11.312602996826172
1689018020413980943,0.09480853378772736,-0.0884169489145279,0.15872439742088318,-0.12449848651885986,0.11372458189725876,11.520898818969727
1689018020422980943,0.07776430249214172,-0.09054747968912125,0.13848437368869781,-0.020350713282823563,0.09816227108240128,11.628637313842773
1689018020432980943,0.06391586363315582,-0.08948221057653427,0.13528858125209808,0.08499415963888168,0.12090718746185303,11.688492774963379
1689018020441980943,0.049002163112163544,-0.092678003013134,0.13209278881549835,0.17717091739177704,0.15801730751991272,11.793837547302246
1689018020451980943,0.026631610468029976,-0.10546118021011353,0.1065264418721199,0.23582886159420013,0.19393032789230347,12.008118629455566
1689018020461980943,-0.011717909015715122,-0.1299622654914856,0.06072007119655609,0.26336216926574707,0.2238578498363495,12.29781723022461
1689018020470980943,-0.06604639440774918,-0.15978966653347015,0.002130528911948204,0.33518823981285095,0.21667525172233582,12.509703636169434
1689018020479980943,-0.1299622654914856,-0.18216021358966827,-0.05432848632335663,0.5147533416748047,0.1604115068912506,12.543222427368164
1689018020489980943,-0.19600865244865417,-0.1896170675754547,-0.10439591109752655,0.751779317855835,0.05746084079146385,12.45703125
1689018020498980943,-0.2599245309829712,-0.18216021358966827,-0.14700649678707123,0.970848798751831,-0.1388636976480484,12.312182426452637
1689018020508980943,-0.31212249398231506,-0.1619201898574829,-0.1715075671672821,1.1013327836990356,-0.43335050344467163,12.084733009338379
1689018020517980943,-0.3440804183483124,-0.13209278881549835,-0.16511598229408264,1.2114660739898682,-0.7948749661445618,11.73398208618164
1689018020527980943,-0.3568635880947113,-0.09480853378772736,-0.14487595856189728,1.4149731397628784,-1.137245774269104,11.259930610656738
1689018020536980943,-0.3440804183483124,-0.047936901450157166,-0.10972223430871964,1.6340426206588745,-1.3611036539077759,10.812214851379395
1689018020546980943,-0.3099919557571411,0.004261057823896408,-0.06178533658385277,1.7788918018341064,-1.4664485454559326,10.554838180541992
1689018020555980943,-0.2641855776309967,0.05326322093605995,-0.009587380103766918,1.845929503440857,-1.5322890281677246,10.42315673828125
1689018020564980943,-0.2087918221950531,0.10439591109752655,0.015978965908288956,1.9177554845809937,-1.4963760375976562,10.471040725708008
1689018020575980943,-0.148071750998497,0.14913702011108398,0.02130528911948204,1.9716250896453857,-1.3311761617660522,10.66137981414795
1689018020583980943,-0.09587380290031433,0.18322548270225525,0.0,1.9919757843017578,-1.1456254720687866,10.836156845092773
1689018020593980943,-0.05752427875995636,0.20772656798362732,-0.05006742849946022,2.0195090770721436,-0.9888052940368652,10.972625732421875
1689018020602980943,-0.03621898964047432,0.2173139452934265,-0.1342233121395111,1.942894697189331,-0.9469067454338074,11.060014724731445
1689018020612980943,-0.03195793181657791,0.2045307755470276,-0.24394555389881134,1.721431016921997,-1.0546457767486572,11.117475509643555
1689018020621980943,-0.03834952041506767,0.17470337450504303,-0.36858150362968445,1.4760253429412842,-1.182735562324524,11.08754825592041
1689018020631980943,-0.0511326938867569,0.13635385036468506,-0.49002164602279663,1.3515268564224243,-1.2270283699035645,10.901997566223145
1689018020640980943,-0.0649811327457428,0.09800432622432709,-0.6008091568946838,1.3718775510787964,-1.182735562324524,10.617087364196777
1689018020650980943,-0.0788295716047287,0.06711165606975555,-0.6860302686691284,1.4293383359909058,-1.0761936902999878,10.290278434753418
1689018020659980943,-0.09693906456232071,0.047936901450157166,-0.7403587698936462,1.4508862495422363,-0.993593692779541,9.913191795349121
1689018020669980943,-0.11504855751991272,0.04261057823896408,-0.7552725076675415,1.4161702394485474,-0.933738648891449,9.502586364746094
1689018020678980943,-0.13528858125209808,0.04687163606286049,-0.7360977530479431,1.3108254671096802,-0.8643068075180054,9.080009460449219
1689018020688980943,-0.15659387409687042,0.05752427875995636,-0.6892260909080505,1.1707645654678345,-0.8595184087753296,8.677783966064453
1689018020697980943,-0.17044231295585632,0.06178533658385277,-0.6306365728378296,1.016338586807251,-0.9277531504631042,8.293514251708984
1689018020706980943,-0.17257283627986908,0.06072007119655609,-0.5667206645011902,0.8667010068893433,-1.0259153842926025,7.9379754066467285
1689018020716980943,-0.1619201898574829,0.058589544147253036,-0.5070658922195435,0.7493851184844971,-1.114500880241394,7.624335289001465
1689018020725980943,-0.13528858125209808,0.05326322093605995,-0.45593318343162537,0.6667851805686951,-1.1887211799621582,7.384914875030518
1689018020735980943,-0.09587380290031433,0.04367584362626076,-0.4133225977420807,0.6057330369949341,-1.2282254695892334,7.176619529724121
1689018020745980943,-0.049002163112163544,0.03515372797846794,-0.3802993893623352,0.547075092792511,-1.1994950771331787,7.020996570587158
1689018020754980943,0.001065264455974102,0.029827404767274857,-0.3579288423061371,0.4704606235027313,-1.1192892789840698,6.933608055114746
1689018020763980943,0.05006742849946022,0.026631610468029976,-0.3483414649963379,0.3842693567276001,-0.9983820915222168,6.885724067687988
1689018020773980943,0.10120011866092682,0.020240023732185364,-0.3483414649963379,0.30286651849746704,-0.8559271097183228,6.876147270202637
1689018020782980943,0.15020228922367096,0.008522115647792816,-0.35473304986953735,0.20470423996448517,-0.7194576263427734,6.921637058258057
1689018020792980943,0.1992044448852539,-0.007456851191818714,-0.3653857111930847,0.12449848651885986,-0.6021417379379272,7.0317702293396
1689018020802980943,0.24394555389881134,-0.022370552644133568,-0.3802993893623352,0.11372458189725876,-0.5159504413604736,7.141903400421143
1689018020811980943,0.287621408700943,-0.034088462591171265,-0.3941478431224823,0.16400282084941864,-0.447715699672699,7.259219646453857
1689018020820980943,0.3281014561653137,-0.037284255027770996,-0.4048004746437073,0.23822306096553802,-0.365115761756897,7.406462669372559
1689018020830980943,0.362189918756485,-0.03195793181657791,-0.41119205951690674,0.30885201692581177,-0.24181437492370605,7.5884222984313965
1689018020839980943,0.3888215124607086,-0.023435818031430244,-0.41119205951690674,0.33039984107017517,-0.08140285313129425,7.807491779327393
1689018020848980943,0.40586575865745544,-0.01065264455974102,-0.4037352204322815,0.25498247146606445,0.0933738648891449,8.08402156829834
1689018020859980943,0.4122573435306549,0.0,-0.3888215124607086,0.14484919607639313,0.272938996553421,8.416815757751465
1689018020867980943,0.40586575865745544,0.009587380103766918,-0.3653857111930847,0.0586579404771328,0.41778817772865295,8.737639427185059
1689018020877980943,0.38669100403785706,0.015978965908288956,-0.33555829524993896,-0.015562310814857483,0.5482721924781799,9.074024200439453
1689018020887980943,0.3579288423061371,0.02130528911948204,-0.3057308793067932,-0.0694318488240242,0.6536170244216919,9.434351921081543
1689018020896980943,0.32170987129211426,0.026631610468029976,-0.2737729549407959,-0.06703764945268631,0.7098807692527771,9.713275909423828
1689018020905980943,0.2833603322505951,0.03834952041506767,-0.23329290747642517,-0.014365210197865963,0.751779317855835,9.90361499786377
1689018020915980943,0.24394555389881134,0.052197955548763275,-0.185356006026268,0.0347159244120121,0.7697358131408691,10.105925559997559
