t,gx,gy,gz,ax,ay,az
1689018012797873107,-0.02130528911948204,0.14913702011108398,0.1715075671672821,-0.15083470940589905,-0.33039984107017517,9.951498985290527
1689018012807873107,-0.022370552644133568,0.15446333587169647,0.185356006026268,-0.21308395266532898,-0.30047231912612915,9.908403396606445
1689018012816873107,-0.023435818031430244,0.15978966653347015,0.1896170675754547,-0.34835633635520935,-0.23822306096553802,9.872490882873535
1689018012826873107,-0.020240023732185364,0.16405072808265686,0.18429075181484222,-0.4824316203594208,-0.1280897855758667,9.855731010437012
1689018012836873107,-0.015978965908288956,0.16618125140666962,0.1672465205192566,-0.5363011956214905,-0.08619125932455063,9.831789016723633
1689018012846873107,-0.011717909015715122,0.16511598229408264,0.14487595856189728,-0.5446808934211731,-0.08379705995321274,9.803058624267578
1689018012855873107,-0.008522115647792816,0.15872439742088318,0.11824434995651245,-0.5339069962501526,-0.08978256583213806,9.803058624267578
1689018012865873107,-0.006391586735844612,0.14913702011108398,0.08735168725252151,-0.5267243385314941,-0.1173158809542656,9.81143856048584
1689018012874873107,-0.003195793367922306,0.13848437368869781,0.06072007119655609,-0.5506663918495178,-0.14365209639072418,9.804255485534668
1689018012884873107,0.0,0.12783172726631165,0.037284255027770996,-0.5674257874488831,-0.08978256583213806,9.815030097961426
1689018012894873107,0.003195793367922306,0.11717908829450607,0.015978965908288956,-0.47165772318840027,-0.009576806798577309,9.832985877990723
1689018012903873107,0.006391586735844612,0.10120011866092682,0.0,-0.28131869435310364,-0.043095629662275314,9.84735107421875
1689018012913873107,0.006391586735844612,0.07989483326673508,-0.002130528911948204,-0.1256955862045288,-0.07422025501728058,9.889249801635742
1689018012923873107,0.006391586735844612,0.055393751710653305,-0.002130528911948204,-0.06224924325942993,-0.008379706181585789,9.885658264160156
1689018012932873107,0.011717909015715122,0.03195793181657791,-0.006391586735844612,-0.08858545869588852,0.13527239859104156,9.840168952941895
1689018012942873107,0.02130528911948204,0.009587380103766918,-0.008522115647792816,-0.05147533491253853,0.22026655077934265,9.798270225524902
1689018012952873107,0.034088462591171265,-0.013848437927663326,-0.004261057823896408,0.008379706181585789,0.20949263870716095,9.75637149810791
1689018012961873107,0.04687163606286049,-0.034088462591171265,-0.003195793367922306,-0.02753331884741783,0.2190694510936737,9.744400978088379
1689018012971873107,0.05965480953454971,-0.055393751710653305,-0.00532632227987051,-0.08499415963888168,0.22026655077934265,9.75397777557373
1689018012981873107,0.07030745595693588,-0.07350324839353561,-0.011717909015715122,-0.1604115068912506,0.16160860657691956,9.758766174316406
1689018012991873107,0.07776430249214172,-0.0884169489145279,-0.02130528911948204,-0.24660277366638184,0.08499415963888168,9.764751434326172
1689018013000873107,0.08202536404132843,-0.10013485699892044,-0.02556634694337845,-0.3148375153541565,0.020350713282823563,9.734824180603027
1689018013010873107,0.08415588736534119,-0.10865697264671326,-0.029827404767274857,-0.355538934469223,-0.06464344263076782,9.70010757446289
1689018013020873107,0.08415588736534119,-0.1161138266324997,-0.03302319720387459,-0.39145198464393616,-0.11013327538967133,9.710882186889648
1689018013030873107,0.08309062570333481,-0.12250541150569916,-0.034088462591171265,-0.45250412821769714,-0.10534487664699554,9.696516990661621
1689018013039873107,0.08309062570333481,-0.1257012039422989,-0.034088462591171265,-0.4836287498474121,-0.11372458189725876,9.660603523254395
1689018013049873107,0.08415588736534119,-0.1299622654914856,-0.03834952041506767,-0.4824316203594208,-0.12928688526153564,9.649829864501953
1689018013059873107,0.08415588736534119,-0.13528858125209808,-0.04367584362626076,-0.5111620426177979,-0.15921440720558167,9.642646789550781
1689018013068873107,0.08096009492874146,-0.1395496428012848,-0.0511326938867569,-0.5566518902778625,-0.20350714027881622,9.640253067016602
1689018013078873107,0.07456851005554199,-0.14274543523788452,-0.05645901337265968,-0.6045359373092651,-0.23104046285152435,9.621099472045898
1689018013088873107,0.06711165606975555,-0.14274543523788452,-0.05965480953454971,-0.667982280254364,-0.24181437492370605,9.580397605895996
1689018013098873107,0.058589544147253036,-0.14168016612529755,-0.06072007119655609,-0.727837324142456,-0.23942016065120697,9.558850288391113
1689018013108873107,0.052197955548763275,-0.13848437368869781,-0.05965480953454971,-0.7697358131408691,-0.19632454216480255,9.555258750915527
1689018013118474109,0.04580637067556381,-0.1342233121395111,-0.05645901337265968,-0.7972691655158997,-0.14245499670505524,9.534908294677734
1689018013128474109,0.04048004746437073,-0.12889699637889862,-0.05752427875995636,-0.811634361743927,-0.09696516394615173,9.536105155944824
1689018013137474109,0.037284255027770996,-0.12250541150569916,-0.05965480953454971,-0.8391676545143127,-0.0454898327589035,9.546878814697266
1689018013148474109,0.034088462591171265,-0.1161138266324997,-0.06178533658385277,-0.9062053561210632,-0.0035913025494664907,9.556455612182617
1689018013157474109,0.03302319720387459,-0.10759171098470688,-0.06178533658385277,-0.970848798751831,0.043095629662275314,9.579200744628906
1689018013167474109,0.03302319720387459,-0.09587380290031433,-0.06072007119655609,-1.01753568649292,0.07422025501728058,9.578003883361816
1689018013176474109,0.034088462591171265,-0.08202536404132843,-0.058589544147253036,-1.0522515773773193,0.08259996026754379,9.592369079589844
1689018013186474109,0.03302319720387459,-0.06711165606975555,-0.05326322093605995,-1.0558428764343262,0.07062894850969315,9.647435188293457
1689018013196474109,0.030892668291926384,-0.05645901337265968,-0.0511326938867569,-0.9995791912078857,0.02753331884741783,9.713275909423828
1689018013205474109,0.02556634694337845,-0.049002163112163544,-0.05006742849946022,-0.9253589510917664,-0.002394201699644327,9.782708168029785
1689018013216474109,0.020240023732185364,-0.04367584362626076,-0.05326322093605995,-0.8619126081466675,-0.033518824726343155,9.842562675476074
1689018013225474109,0.015978965908288956,-0.04048004746437073,-0.06178533658385277,-0.7984662652015686,-0.05027823522686958,9.885658264160156
1689018013234474109,0.011717909015715122,-0.03941478580236435,-0.07137271761894226,-0.7230489253997803,-0.07062894850969315,9.925163269042969
1689018013244474109,0.008522115647792816,-0.03941478580236435,-0.08415588736534119,-0.651222825050354,-0.10295066982507706,9.949105262756348
1689018013254474109,0.006391586735844612,-0.04048004746437073,-0.09587380290031433,-0.629675030708313,-0.12689268589019775,9.962272644042969
1689018013263474109,0.003195793367922306,-0.03941478580236435,-0.10333064943552017,-0.6248866319656372,-0.15682020783424377,9.973047256469727
1689018013273474109,0.002130528911948204,-0.03941478580236435,-0.10439591109752655,-0.6009446382522583,-0.17836801707744598,9.987412452697754
1689018013283474109,0.0,-0.03834952041506767,-0.10013485699892044,-0.5746083855628967,-0.20350714027881622,9.998186111450195
1689018013293474109,-0.001065264455974102,-0.03621898964047432,-0.09587380290031433,-0.5662286877632141,-0.2214636504650116,9.999382972717285
1689018013302474109,-0.002130528911948204,-0.03302319720387459,-0.09054747968912125,-0.568622887134552,-0.23822306096553802,10.000580787658691
1689018013312474109,-0.002130528911948204,-0.029827404767274857,-0.08522115647792816,-0.5494692921638489,-0.25498247146606445,10.005369186401367
1689018013322474109,-0.002130528911948204,-0.026631610468029976,-0.08096009492874146,-0.49799394607543945,-0.24779987335205078,10.006566047668457
1689018013332474109,0.0,-0.024501081556081772,-0.07669904083013535,-0.4489127993583679,-0.22744916379451752,9.99220085144043
1689018013341474109,0.004261057823896408,-0.022370552644133568,-0.07243797928094864,-0.424970805644989,-0.18076223134994507,9.97184944152832
1689018013351474109,0.01065264455974102,-0.019174760207533836,-0.06817692518234253,-0.41539397835731506,-0.12210428714752197,9.955090522766113
1689018013361474109,0.02130528911948204,-0.014913702383637428,-0.06391586363315582,-0.38067805767059326,-0.08858545869588852,9.926360130310059
1689018013371474109,0.030892668291926384,-0.012783173471689224,-0.05965480953454971,-0.3076549172401428,-0.08738835901021957,9.900023460388184
1689018013380474109,0.041545312851667404,-0.011717909015715122,-0.05645901337265968,-0.24061726033687592,-0.1149216815829277,9.872490882873535
1689018013390474109,0.052197955548763275,-0.01065264455974102,-0.05432848632335663,-0.20350714027881622,-0.14006079733371735,9.84735107421875
1689018013400474109,0.06285060197114944,-0.009587380103766918,-0.0511326938867569,-0.1735796183347702,-0.13407529890537262,9.825803756713867
1689018013409474109,0.07350324839353561,-0.007456851191818714,-0.04687163606286049,-0.13407529890537262,-0.13407529890537262,9.794678688049316
1689018013419474109,0.08415588736534119,-0.007456851191818714,-0.04261057823896408,-0.11611878126859665,-0.14604629576206207,9.768342971801758
1689018013428474109,0.09161274135112762,-0.00532632227987051,-0.037284255027770996,-0.10175357013940811,-0.16639702022075653,9.737217903137207
1689018013439474109,0.09800432622432709,-0.00532632227987051,-0.03195793181657791,-0.04668693244457245,-0.18076223134994507,9.704895973205566
1689018013448474109,0.1022653877735138,-0.007456851191818714,-0.02876213937997818,0.02513911761343479,-0.1951274424791336,9.680953979492188
1689018013458474109,0.1022653877735138,-0.012783173471689224,-0.027696875855326653,0.06584054231643677,-0.20350714027881622,9.658209800720215
1689018013467474109,0.10120011866092682,-0.01810949482023716,-0.02876213937997818,0.090979665517807,-0.19033902883529663,9.645041465759277
1689018013478474109,0.09906959533691406,-0.026631610468029976,-0.026631610468029976,0.12090718746185303,-0.16639702022075653,9.63067626953125
1689018013487474109,0.09480853378772736,-0.03515372797846794,-0.024501081556081772,0.12928688526153564,-0.12689268589019775,9.610325813293457
1689018013497474109,0.0884169489145279,-0.04261057823896408,-0.02130528911948204,0.12449848651885986,-0.08379705995321274,9.59596061706543
1689018013506474109,0.08202536404132843,-0.052197955548763275,-0.02130528911948204,0.15921440720558167,-0.05386953800916672,9.603142738342285
1689018013517474109,0.07350324839353561,-0.06391586363315582,-0.024501081556081772,0.23822306096553802,-0.035913024097681046,9.624691009521484
1689018013526474109,0.06391586363315582,-0.0788295716047287,-0.030892668291926384,0.304063618183136,-0.014365210197865963,9.648633003234863
1689018013535474109,0.052197955548763275,-0.09374327212572098,-0.04367584362626076,0.32202011346817017,0.013168109580874443,9.673771858215332
1689018013545474109,0.04261057823896408,-0.11078750342130661,-0.058589544147253036,0.3100491166114807,0.05985504016280174,9.679757118225098
1689018013555474109,0.034088462591171265,-0.12463594228029251,-0.07456851005554199,0.28371289372444153,0.11971008032560349,9.649829864501953
1689018013565474109,0.027696875855326653,-0.13635385036468506,-0.0884169489145279,0.24420857429504395,0.17717091739177704,9.604339599609375
1689018013574474109,0.024501081556081772,-0.14487595856189728,-0.09906959533691406,0.2059013396501541,0.2190694510936737,9.57441234588623
1689018013584474109,0.02130528911948204,-0.15020228922367096,-0.1065264418721199,0.14724339544773102,0.26336216926574707,9.558850288391113
1689018013594474109,0.02130528911948204,-0.1533980816602707,-0.10972223430871964,0.05027823522686958,0.3100491166114807,9.549273490905762
1689018013604474109,0.022370552644133568,-0.15126754343509674,-0.10865697264671326,-0.05267243832349777,0.3315969407558441,9.545681953430176
1689018013613474109,0.022370552644133568,-0.14594122767448425,-0.1065264418721199,-0.13168108463287354,0.333991140127182,9.5408935546875
1689018013623474109,0.022370552644133568,-0.13848437368869781,-0.1022653877735138,-0.2059013396501541,0.3363853394985199,9.53969669342041
1689018013633474109,0.022370552644133568,-0.13102751970291138,-0.09587380290031433,-0.28730419278144836,0.3411737382411957,9.54209041595459
1689018013642474109,0.023435818031430244,-0.1203748807311058,-0.08948221057653427,-0.32441431283950806,0.34596213698387146,9.563638687133789
1689018013652474109,0.022370552644133568,-0.11078750342130661,-0.08415588736534119,-0.33279404044151306,0.35314473509788513,9.606734275817871
1689018013662474109,0.024501081556081772,-0.10120011866092682,-0.08309062570333481,-0.3687070608139038,0.355538934469223,9.645041465759277
1689018013671474109,0.02556634694337845,-0.09054747968912125,-0.0884169489145279,-0.4118026793003082,0.365115761756897,9.678560256958008
1689018013681474109,0.026631610468029976,-0.08202536404132843,-0.09587380290031433,-0.4489127993583679,0.3663128614425659,9.710882186889648
1689018013691474109,0.026631610468029976,-0.06924218684434891,-0.1065264418721199,-0.5027823448181152,0.3543418347835541,9.726444244384766
1689018013701474109,0.026631610468029976,-0.05645901337265968,-0.11824434995651245,-0.5614402890205383,0.35075053572654724,9.720458984375
1689018013710474109,0.026631610468029976,-0.041545312851667404,-0.1299622654914856,-0.5949591398239136,0.3423708379268646,9.707290649414062
1689018013720474109,0.02556634694337845,-0.026631610468029976,-0.13741911947727203,-0.6045359373092651,0.33039984107017517,9.685742378234863
1689018013730474109,0.024501081556081772,-0.011717909015715122,-0.1395496428012848,-0.5889735817909241,0.33518823981285095,9.66539192199707
1689018013740474109,0.023435818031430244,0.00532632227987051,-0.13741911947727203,-0.5374982953071594,0.33518823981285095,9.659406661987305
1689018013749474109,0.023435818031430244,0.020240023732185364,-0.13528858125209808,-0.5003881454467773,0.3363853394985199,9.66419506072998
1689018013759474109,0.022370552644133568,0.03621898964047432,-0.13315805792808533,-0.4908113479614258,0.3292027413845062,9.674968719482422
1689018013768474109,0.020240023732185364,0.052197955548763275,-0.1342233121395111,-0.4537012279033661,0.30526071786880493,9.690530776977539
1689018013778474109,0.01810949482023716,0.06391586363315582,-0.13635385036468506,-0.3794809579849243,0.28131869435310364,9.714472770690918
1689018013788474109,0.013848437927663326,0.07456851005554199,-0.13635385036468506,-0.27653029561042786,0.23942016065120697,9.733627319335938
1689018013798474109,0.008522115647792816,0.08202536404132843,-0.13635385036468506,-0.15562310814857483,0.20111294090747833,9.744400978088379
1689018013807474109,0.002130528911948204,0.08628641813993454,-0.13315805792808533,-0.05386953800916672,0.19153612852096558,9.75397777557373
1689018013818474109,-0.004261057823896408,0.0884169489145279,-0.12463594228029251,0.04189852997660637,0.18914192914962769,9.764751434326172
1689018013827474109,-0.011717909015715122,0.09054747968912125,-0.11398329585790634,0.12689268589019775,0.18555063009262085,9.763554573059082
1689018013836474109,-0.019174760207533836,0.08948221057653427,-0.10333064943552017,0.1867477297782898,0.18914192914962769,9.75517463684082
1689018013846474109,-0.026631610468029976,0.08948221057653427,-0.09054747968912125,0.2621650695800781,0.18794482946395874,9.745597839355469
1689018013856474109,-0.03621898964047432,0.08735168725252151,-0.08309062570333481,0.32202011346817017,0.18555063009262085,9.736021041870117
1689018013866474109,-0.044741105288267136,0.08415588736534119,-0.07669904083013535,0.33997663855552673,0.1951274424791336,9.738415718078613
1689018013875474109,-0.05326322093605995,0.0788295716047287,-0.06924218684434891,0.3543418347835541,0.21787235140800476,9.734824180603027
1689018013885474109,-0.06178533658385277,0.07456851005554199,-0.06178533658385277,0.3663128614425659,0.24899697303771973,9.727641105651855
1689018013895474109,-0.06924218684434891,0.07350324839353561,-0.055393751710653305,0.3495534360408783,0.27054479718208313,9.732429504394531
1689018013904474109,-0.07456851005554199,0.07243797928094864,-0.05326322093605995,0.3100491166114807,0.2717418968677521,9.758766174316406
1689018013914474109,-0.07989483326673508,0.07137271761894226,-0.052197955548763275,0.32680851221084595,0.27892449498176575,9.799467086791992
1689018013924474109,-0.08522115647792816,0.06817692518234253,-0.049002163112163544,0.39624038338661194,0.2932896912097931,9.84615421295166
1689018013934474109,-0.09054747968912125,0.06072007119655609,-0.044741105288267136,0.4345476031303406,0.33039984107017517,9.890446662902832
1689018013943474109,-0.09374327212572098,0.05432848632335663,-0.04048004746437073,0.4082113802433014,0.3926490843296051,9.907206535339355
1689018013953474109,-0.09480853378772736,0.05006742849946022,-0.03302319720387459,0.33758243918418884,0.48602294921875,9.894038200378418
1689018013963474109,-0.09161274135112762,0.049002163112163544,-0.022370552644133568,0.24899697303771973,0.5949591398239136,9.86889934539795
1689018013972474109,-0.08628641813993454,0.05006742849946022,-0.006391586735844612,0.14006079733371735,0.6859387755393982,9.841365814208984
1689018013982474109,-0.0788295716047287,0.055393751710653305,0.013848437927663326,0.020350713282823563,0.7805097699165344,9.81024169921875
1689018013992474109,-0.06924218684434891,0.06391586363315582,0.03834952041506767,-0.09457096457481384,0.872686505317688,9.781511306762695
1689018014002474109,-0.05965480953454971,0.07456851005554199,0.06391586363315582,-0.21667525172233582,0.95528644323349,9.763554573059082
1689018014011474109,-0.049002163112163544,0.08522115647792816,0.08735168725252151,-0.35673603415489197,1.036689281463623,9.737217903137207
1689018014021474109,-0.03834952041506767,0.09906959533691406,0.1065264418721199,-0.4944026470184326,1.0989385843276978,9.726444244384766
1689018014030474109,-0.029827404767274857,0.11185276508331299,0.12250541150569916,-0.5746083855628967,1.1300631761550903,9.738415718078613
1689018014041474109,-0.022370552644133568,0.12357067316770554,0.12889699637889862,-0.591367781162262,1.1264718770980835,9.770736694335938
1689018014050474109,-0.01810949482023716,0.13102751970291138,0.12357067316770554,-0.5877764821052551,1.094150185585022,9.830592155456543
1689018014060474109,-0.017044231295585632,0.1342233121395111,0.10865697264671326,-0.5710170865058899,1.071405291557312,9.898826599121094
1689018014069474109,-0.01810949482023716,0.13528858125209808,0.08948221057653427,-0.5530605912208557,1.0773907899856567,9.949105262756348
1689018014080474109,-0.019174760207533836,0.13315805792808533,0.06604639440774918,-0.5781996846199036,1.0905588865280151,9.967061042785645
1689018014089474109,-0.019174760207533836,0.13209278881549835,0.041545312851667404,-0.6045359373092651,1.1073182821273804,9.980229377746582
1689018014099474109,-0.02130528911948204,0.12889699637889862,0.017044231295585632,-0.568622887134552,1.1264718770980835,10.001777648925781
1689018014108474109,-0.022370552644133568,0.12463594228029251,-0.007456851191818714,-0.49559974670410156,1.139639973640442,10.016142845153809
1689018014119474109,-0.023435818031430244,0.11930961906909943,-0.034088462591171265,-0.3902548849582672,1.1432312726974487,10.008959770202637
1689018014128474109,-0.024501081556081772,0.11078750342130661,-0.06072007119655609,-0.2693476974964142,1.1324573755264282,9.97184944152832
1689018014138474109,-0.023435818031430244,0.10013485699892044,-0.08522115647792816,-0.17956513166427612,1.116895079612732,9.926360130310059
1689018014147474109,-0.02130528911948204,0.09161274135112762,-0.10759171098470688,-0.13527239859104156,1.1001356840133667,9.877279281616211
1689018014157474109,-0.01810949482023716,0.08415588736534119,-0.12463594228029251,-0.1364694982767105,1.094150185585022,9.81383228302002
1689018014167474109,-0.013848437927663326,0.07989483326673508,-0.13528858125209808,-0.152031809091568,1.115697979927063,9.749189376831055
1689018014176474109,-0.006391586735844612,0.0788295716047287,-0.13635385036468506,-0.14724339544773102,1.137245774269104,9.694122314453125
1689018014186474109,0.001065264455974102,0.07776430249214172,-0.13209278881549835,-0.10893617570400238,1.138442873954773,9.676165580749512
1689018014196474109,0.01065264455974102,0.07669904083013535,-0.12144014239311218,-0.07062894850969315,1.1408370733261108,9.676165580749512
1689018014205474109,0.01810949482023716,0.07350324839353561,-0.10759171098470688,-0.05985504016280174,1.1348515748977661,9.682151794433594
1689018014215474109,0.02556634694337845,0.07137271761894226,-0.092678003013134,-0.061052143573760986,1.1324573755264282,9.696516990661621
1689018014225474109,0.034088462591171265,0.06711165606975555,-0.07669904083013535,-0.08858545869588852,1.157596468925476,9.706093788146973
1689018014234474109,0.041545312851667404,0.06604639440774918,-0.06285060197114944,-0.17836801707744598,1.2186486721038818,9.690530776977539
1689018014244474109,0.0511326938867569,0.06817692518234253,-0.04687163606286049,-0.325611412525177,1.2868833541870117,9.661800384521484
1689018014254474109,0.05965480953454971,0.07137271761894226,-0.03195793181657791,-0.47165772318840027,1.3072340488433838,9.667786598205566
1689018014264474109,0.06604639440774918,0.07563377171754837,-0.01810949482023716,-0.5746083855628967,1.301248550415039,9.704895973205566
1689018014273474109,0.06817692518234253,0.0788295716047287,-0.007456851191818714,-0.6751648783683777,1.280897855758667,9.736021041870117
1689018014283474109,0.06604639440774918,0.08096009492874146,-0.004261057823896408,-0.7661445140838623,1.2318167686462402,9.768342971801758
1689018014293474109,0.05965480953454971,0.08096009492874146,-0.008522115647792816,-0.8451532125473022,1.2018892765045166,9.807847023010254
1689018014303474109,0.05006742849946022,0.07989483326673508,-0.01810949482023716,-0.9014168977737427,1.191115379333496,9.818620681762695
1689018014312474109,0.037284255027770996,0.07669904083013535,-0.03834952041506767,-0.9038110971450806,1.1707645654678345,9.795876502990723
1689018014322474109,0.024501081556081772,0.06924218684434891,-0.0649811327457428,-0.8571242094039917,1.1420341730117798,9.783905029296875
1689018014332474109,0.006391586735844612,0.05752427875995636,-0.09587380290031433,-0.7781155109405518,1.0797849893569946,9.805453300476074
1689018014342474109,-0.014913702383637428,0.04048004746437073,-0.12889699637889862,-0.7493851184844971,1.0103530883789062,9.841365814208984
1689018014351474109,-0.03941478580236435,0.022370552644133568,-0.15446333587169647,-0.788889467716217,0.9780313968658447,9.84495735168457
1689018014361474109,-0.06391586363315582,0.00532632227987051,-0.17257283627986908,-0.834379255771637,0.9744400978088379,9.819818496704102
1689018014371474109,-0.08628641813993454,-0.01065264455974102,-0.18216021358966827,-0.851138710975647,0.993593692779541,9.7791166305542
1689018014381474109,-0.1065264418721199,-0.02556634694337845,-0.18322548270225525,-0.8427590131759644,1.0211269855499268,9.726444244384766
1689018014390474109,-0.1203748807311058,-0.03621898964047432,-0.1757686287164688,-0.8367734551429749,1.07379949092865,9.679757118225098
1689018014400474109,-0.12783172726631165,-0.04580637067556381,-0.1576591432094574,-0.8427590131759644,1.158793568611145,9.648633003234863
1689018014409474109,-0.1299622654914856,-0.05006742849946022,-0.13315805792808533,-0.8846575021743774,1.2294225692749023,9.606734275817871
1689018014419474109,-0.12676647305488586,-0.05326322093605995,-0.1022653877735138,-0.954089343547821,1.2940659523010254,9.570820808410645
1689018014429474109,-0.11824434995651245,-0.0511326938867569,-0.06711165606975555,-1.0187327861785889,1.3431471586227417,9.554061889648438
1689018014438474109,-0.10972223430871964,-0.049002163112163544,-0.030892668291926384,-1.0546457767486572,1.3766659498214722,9.560047149658203
1689018014448474109,-0.10013485699892044,-0.044741105288267136,0.006391586735844612,-1.0869675874710083,1.403002142906189,9.57441234588623
1689018014458474109,-0.08948221057653427,-0.03941478580236435,0.04048004746437073,-1.116895079612732,1.40180504322052,9.558850288391113
1689018014468474109,-0.08096009492874146,-0.034088462591171265,0.07137271761894226,-1.070208191871643,1.3862427473068237,9.556455612182617
1689018014477474109,-0.07563377171754837,-0.03302319720387459,0.09161274135112762,-0.9876081943511963,1.3527239561080933,9.5995512008667
1689018014487474109,-0.07669904083013535,-0.03834952041506767,0.1022653877735138,-0.9349357485771179,1.3108254671096802,9.655815124511719
1689018014497474109,-0.08309062570333481,-0.04687163606286049,0.10333064943552017,-0.8834604024887085,1.2844891548156738,9.696516990661621
1689018014506474109,-0.09480853378772736,-0.05965480953454971,0.09693906456232071,-0.7948749661445618,1.235408067703247,9.733627319335938
1689018014516474109,-0.11078750342130661,-0.0788295716047287,0.08096009492874146,-0.689530074596405,1.191115379333496,9.762357711791992
1689018014526474109,-0.12889699637889862,-0.10120011866092682,0.058589544147253036,-0.5829880833625793,1.182735562324524,9.78869342803955
1689018014535474109,-0.148071750998497,-0.1299622654914856,0.02876213937997818,-0.416591078042984,1.1540051698684692,9.803058624267578
1689018014545474109,-0.16937704384326935,-0.16831177473068237,0.004261057823896408,0.07302314788103104,0.9792284965515137,9.733627319335938
1689018014555474109,-0.1906823366880417,-0.21624867618083954,-0.004261057823896408,0.17717091739177704,1.01753568649292,9.736021041870117
1689018014564474109,-0.20133498311042786,-0.25353294610977173,-0.01810949482023716,0.15442600846290588,1.0307037830352783,9.780313491821289
1689018014574474109,-0.20985709130764008,-0.2886866629123688,-0.009587380103766918,0.2537853717803955,0.9971849918365479,9.769539833068848
1689018014584474109,-0.20240023732185364,-0.3067961633205414,0.002130528911948204,0.011971008032560349,1.1731587648391724,9.800664901733398
1689018014594474109,-0.1810949593782425,-0.3110572099685669,0.008522115647792816,-0.16160860657691956,1.2988543510437012,9.818620681762695
1689018014604474109,-0.14700649678707123,-0.3014698326587677,0.01810949482023716,-0.39624038338661194,1.4305354356765747,9.783905029296875
1689018014613474109,-0.10439591109752655,-0.2780340313911438,0.009587380103766918,-0.6224924325942993,1.4939818382263184,9.75397777557373
1689018014623474109,-0.055393751710653305,-0.24820661544799805,-0.01065264455974102,-0.730231523513794,1.4963760375976562,9.795876502990723
1689018014633474109,-0.003195793367922306,-0.21518342196941376,-0.047936901450157166,-0.7577648162841797,1.4209586381912231,9.815030097961426
1689018014643474109,0.044741105288267136,-0.185356006026268,-0.1022653877735138,-0.6835445761680603,1.2294225692749023,9.822212219238281
1689018014652474109,0.08415588736534119,-0.16405072808265686,-0.1576591432094574,-0.5710170865058899,0.851138710975647,9.926360130310059
1689018014662474109,0.10972223430871964,-0.15020228922367096,-0.20133498311042786,-0.447715699672699,0.31842881441116333,10.087968826293945
1689018014672474109,0.11824434995651245,-0.14594122767448425,-0.23329290747642517,-0.20470423996448517,-0.1843535304069519,10.293869972229004
1689018014681474109,0.11504855751991272,-0.15446333587169647,-0.258859246969223,0.07182604819536209,-0.5410895943641663,10.563218116760254
1689018014691474109,0.10439591109752655,-0.16831177473068237,-0.28016453981399536,0.2825157940387726,-0.8271966576576233,10.773907661437988
1689018014701474109,0.0884169489145279,-0.18429075181484222,-0.29401299357414246,0.46088382601737976,-1.0606313943862915,10.91037654876709
1689018014711474109,0.07137271761894226,-0.20133498311042786,-0.29827404022216797,0.5339069962501526,-1.1348515748977661,11.016919136047363
1689018014720474109,0.06072007119655609,-0.21198762953281403,-0.2918824553489685,0.48482584953308105,-1.0091559886932373,11.014524459838867
1689018014730474109,0.06072007119655609,-0.21518342196941376,-0.28122982382774353,0.4106055796146393,-0.7805097699165344,10.90798282623291
1689018014739474109,0.06817692518234253,-0.2087918221950531,-0.2737729549407959,0.3423708379268646,-0.5566518902778625,10.803834915161133
1689018014750474109,0.08415588736534119,-0.19813919067382812,-0.27057716250419617,0.27653029561042786,-0.39145198464393616,10.720037460327148
1689018014759474109,0.10013485699892044,-0.18216021358966827,-0.27590349316596985,0.20709843933582306,-0.3447650372982025,10.644620895385742
1689018014769474109,0.11717908829450607,-0.16298545897006989,-0.2918824553489685,0.14724339544773102,-0.32680851221084595,10.56800651550293
1689018014778474109,0.13315805792808533,-0.14168016612529755,-0.3163835406303406,0.15682020783424377,-0.2753331959247589,10.475829124450684
1689018014789474109,0.14700649678707123,-0.12250541150569916,-0.35047200322151184,0.2190694510936737,-0.19632454216480255,10.384849548339844
1689018014797474109,0.16085493564605713,-0.1022653877735138,-0.3888215124607086,0.25019407272338867,-0.08738835901021957,10.29746150970459
1689018014807474109,0.17363810539245605,-0.08202536404132843,-0.42823630571365356,0.30286651849746704,0.010773907415568829,10.188525199890137
1689018014817474109,0.185356006026268,-0.06391586363315582,-0.4644553065299988,0.37469255924224854,0.0933738648891449,10.068815231323242
1689018014827474109,0.1949433982372284,-0.047936901450157166,-0.4921521842479706,0.4010287821292877,0.10893617570400238,9.87967300415039
1689018014836474109,0.19707392156124115,-0.029827404767274857,-0.5081311464309692,0.4273650050163269,0.016759412363171577,9.96945571899414
1689018014846474109,0.1949433982372284,-0.02130528911948204,-0.509196400642395,0.5279214382171631,-0.06703764945268631,9.90361499786377
1689018014856474109,0.18429075181484222,-0.014913702383637428,-0.5028048157691956,0.6368576288223267,-0.14365209639072418,9.72285270690918
1689018014866474109,0.17257283627986908,-0.013848437927663326,-0.49321743845939636,0.6368576288223267,-0.2454056739807129,9.848548889160156
1689018014875474109,0.15446333587169647,-0.013848437927663326,-0.471912145614624,0.6272808313369751,-0.31124621629714966,9.798270225524902
1689018014885474109,0.1342233121395111,-0.017044231295585632,-0.44208472967147827,0.5746083855628967,-0.363918662071228,9.742006301879883
1689018014895474109,0.11504855751991272,-0.01810949482023716,-0.41119205951690674,0.447715699672699,-0.365115761756897,9.704895973205566
1689018014905474109,0.09693906456232071,-0.019174760207533836,-0.3792341351509094,0.38307225704193115,-0.2849099934101105,9.624691009521484
1689018014914474109,0.08309062570333481,-0.024501081556081772,-0.35473304986953735,0.38067805767059326,-0.16160860657691956,9.579200744628906
1689018014924474109,0.07563377171754837,-0.03195793181657791,-0.3430151343345642,0.3208230137825012,0.011971008032560349,9.525331497192383
1689018014934474109,0.07776430249214172,-0.037284255027770996,-0.3398193418979645,0.11372458189725876,0.2059013396501541,9.41759204864502
1689018014943474109,0.08522115647792816,-0.03621898964047432,-0.3398193418979645,-0.07182604819536209,0.33039984107017517,9.367314338684082
1689018014953474109,0.09480853378772736,-0.03302319720387459,-0.34088462591171265,-0.11971008032560349,0.39384618401527405,9.278728485107422
1689018014963474109,0.10546118021011353,-0.027696875855326653,-0.34088462591171265,-0.152031809091568,0.42018237709999084,9.193734169006348
1689018014973474109,0.11930961906909943,-0.022370552644133568,-0.34088462591171265,-0.2346317619085312,0.42018237709999084,9.185354232788086
1689018014982474109,0.13102751970291138,-0.013848437927663326,-0.3387540876865387,-0.28969839215278625,0.37469255924224854,9.117119789123535
1689018014992474109,0.1395496428012848,-0.00532632227987051,-0.33662354946136475,-0.30526071786880493,0.31603461503982544,9.05606746673584
1689018015001474109,0.14274543523788452,0.004261057823896408,-0.3281014561653137,-0.31842881441116333,0.25019407272338867,8.987833023071289
1689018015012474109,0.14168016612529755,0.012783173471689224,-0.3185140788555145,-0.3411737382411957,0.19153612852096558,8.916007041931152
1689018015021474109,0.13848437368869781,0.022370552644133568,-0.29933929443359375,-0.4453215003013611,0.20949263870716095,8.832209587097168
1689018015031474109,0.13635385036468506,0.03621898964047432,-0.27164241671562195,-0.5817909836769104,0.24420857429504395,8.69454288482666
1689018015040474109,0.1342233121395111,0.05645901337265968,-0.23329290747642517,-0.6129156351089478,0.24779987335205078,8.578424453735352
1689018015051474109,0.13209278881549835,0.07776430249214172,-0.18748654425144196,-0.569819986820221,0.2346317619085312,8.53532886505127
1689018015060474109,0.12676647305488586,0.09800432622432709,-0.13741911947727203,-0.5339069962501526,0.23343466222286224,8.555679321289062
1689018015070474109,0.1203748807311058,0.1161138266324997,-0.08522115647792816,-0.46806642413139343,0.20709843933582306,8.610746383666992
1689018015079474109,0.10865697264671326,0.12889699637889862,-0.030892668291926384,-0.3363853394985199,0.15682020783424377,8.680177688598633
1689018015089474109,0.092678003013134,0.13635385036468506,0.02130528911948204,-0.208295539021492,0.15322890877723694,8.771158218383789
1689018015099474109,0.0788295716047287,0.14061491191387177,0.06817692518234253,-0.15682020783424377,0.20111294090747833,8.83939266204834
1689018015108474109,0.06604639440774918,0.14487595856189728,0.10759171098470688,-0.14604629576206207,0.2801215946674347,8.887276649475098
1689018015118474109,0.05432848632335663,0.148071750998497,0.14594122767448425,-0.11851298063993454,0.38307225704193115,8.959102630615234
1689018015128474109,0.04687163606286049,0.14913702011108398,0.17789916694164276,-0.05746084079146385,0.507570743560791,9.027337074279785
1689018015138474109,0.04048004746437073,0.14913702011108398,0.1992044448852539,0.02513911761343479,0.6308721303939819,9.099163055419922
1689018015147474109,0.037284255027770996,0.14594122767448425,0.21198762953281403,0.07661445438861847,0.7577648162841797,9.188945770263672
1689018015157474109,0.03515372797846794,0.1395496428012848,0.2130528837442398,0.10654197633266449,0.8619126081466675,9.281123161315918
1689018015167474109,0.034088462591171265,0.12783172726631165,0.1992044448852539,0.1759738177061081,0.9217676520347595,9.356539726257324
1689018015176474109,0.03302319720387459,0.1161138266324997,0.17257283627986908,0.22266075015068054,0.9481038451194763,9.430760383605957
1689018015186474109,0.03195793181657791,0.10333064943552017,0.13528858125209808,0.181959331035614,0.970848798751831,9.498994827270508
1689018015196474109,0.03302319720387459,0.09587380290031433,0.09906959533691406,0.13287819921970367,0.9995791912078857,9.524134635925293
1689018015206474109,0.037284255027770996,0.09054747968912125,0.0649811327457428,0.13168108463287354,1.0319008827209473,9.532513618469238
1689018015215474109,0.04261057823896408,0.08735168725252151,0.037284255027770996,0.17836801707744598,1.0510544776916504,9.57201862335205
1689018015225474109,0.05006742849946022,0.08522115647792816,0.011717909015715122,0.3016694188117981,1.0187327861785889,9.654618263244629
1689018015235474109,0.055393751710653305,0.07669904083013535,-0.008522115647792816,0.49559974670410156,0.9660603404045105,9.780313491821289
1689018015245474109,0.058589544147253036,0.06391586363315582,-0.01810949482023716,0.712274968624115,0.7864952683448792,9.944316864013672
1689018015254474109,0.05432848632335663,0.04687163606286049,0.0,0.912190854549408,0.3471592366695404,10.153809547424316
1689018015264474109,0.03195793181657791,0.03195793181657791,0.06072007119655609,1.0845733880996704,-0.17836801707744598,10.413579940795898
1689018015273474109,0.00532632227987051,0.023435818031430244,0.15020228922367096,1.0031704902648926,-0.181959331035614,10.541669845581055
1689018015283474109,-0.00532632227987051,0.023435818031430244,0.23968449234962463,0.6919242739677429,0.3926490843296051,10.512939453125
1689018015293474109,0.00532632227987051,0.03195793181657791,0.3206445872783661,0.3387795388698578,0.9624690413475037,10.493785858154297
1689018015302474109,0.030892668291926384,0.04687163606286049,0.3834952116012573,-0.03232172131538391,1.40180504322052,10.536881446838379
1689018015312474109,0.0649811327457428,0.06391586363315582,0.42504051327705383,-0.23582886159420013,1.6531962156295776,10.716446876525879
1689018015322474109,0.09480853378772736,0.07350324839353561,0.4356931447982788,-0.27892449498176575,1.5538368225097656,11.03248119354248
1689018015332474109,0.11291802674531937,0.07030745595693588,0.4133225977420807,-0.3280056416988373,1.2425906658172607,11.367669105529785
1689018015342474109,0.11717908829450607,0.06072007119655609,0.35899412631988525,-0.4297592043876648,0.8930371999740601,11.676521301269531
1689018015352474109,0.11078750342130661,0.047936901450157166,0.28016453981399536,-0.5805938839912415,0.5734112858772278,11.851298332214355
1689018015361474109,0.09906959533691406,0.037284255027770996,0.18002969026565552,-0.751779317855835,0.3711012601852417,11.896787643432617
1689018015371474109,0.0884169489145279,0.02876213937997818,0.08096009492874146,-0.8846575021743774,0.3423708379268646,11.869255065917969
1689018015380474109,0.08415588736534119,0.029827404767274857,0.003195793367922306,-0.9421183466911316,0.48961424827575684,11.736376762390137
1689018015390474109,0.08415588736534119,0.041545312851667404,-0.041545312851667404,-0.9097966551780701,0.5231330394744873,11.605892181396484
1689018015400474109,0.08628641813993454,0.06391586363315582,-0.05645901337265968,-0.9301473498344421,0.669179379940033,11.403582572937012
1689018015409474109,0.10013485699892044,0.09587380290031433,-0.058589544147253036,-0.9516951441764832,0.9995791912078857,11.075576782226562
1689018015419474109,0.12676647305488586,0.1299622654914856,-0.05006742849946022,-0.8259995579719543,1.1528080701828003,10.765527725219727
1689018015430474109,0.15872439742088318,0.16298545897006989,-0.02876213937997818,-0.6619967818260193,1.2294225692749023,10.494982719421387
1689018015438474109,0.19387812912464142,0.19281286001205444,-0.002130528911948204,-0.5303156971931458,1.1563993692398071,10.194510459899902
1689018015448474109,0.22903186082839966,0.21518342196941376,0.030892668291926384,-0.5183446407318115,0.9457096457481384,9.928753852844238
1689018015459474109,0.2599245309829712,0.23755396902561188,0.06391586363315582,-0.5446808934211731,0.727837324142456,9.6989107131958
1689018015467474109,0.28442561626434326,0.24927188456058502,0.08735168725252151,-0.4596867263317108,0.4273650050163269,9.487024307250977
1689018015477474109,0.2918824553489685,0.2545982003211975,0.1065264418721199,-0.2968810200691223,-0.10893617570400238,9.412803649902344
1689018015487474109,0.27696874737739563,0.2460760921239853,0.13741911947727203,-0.0454898327589035,-0.8176198601722717,9.384073257446289
1689018015497474109,0.23861923813819885,0.22477079927921295,0.1906823366880417,0.20709843933582306,-1.3958195447921753,9.227252960205078
1689018015506474109,0.18748654425144196,0.1896170675754547,0.24714134633541107,0.3208230137825012,-1.502361536026001,9.02015495300293
1689018015516474109,0.13635385036468506,0.14594122767448425,0.28016453981399536,0.39863458275794983,-1.2449848651885986,8.887276649475098
1689018015526474109,0.08628641813993454,0.09480853378772736,0.2822950780391693,0.5243301391601562,-1.0235211849212646,8.845377922058105
1689018015536474109,0.03302319720387459,0.04261057823896408,0.258859246969223,0.5207388401031494,-0.851138710975647,8.887276649475098
1689018015545474109,-0.019174760207533836,-0.006391586735844612,0.20240023732185364,0.2717418968677521,-0.5626373887062073,8.983044624328613
1689018015555474109,-0.06817692518234253,-0.0511326938867569,0.11930961906909943,-0.03950432687997818,-0.2825157940387726,9.083600997924805
1689018015565474109,-0.11504855751991272,-0.0884169489145279,0.030892668291926384,-0.22864626348018646,-0.15442600846290588,9.124302864074707
1689018015575474109,-0.15659387409687042,-0.11717908829450607,-0.047936901450157166,-0.34835633635520935,-0.02274491637945175,9.046490669250488
1689018015584474109,-0.18748654425144196,-0.13635385036468506,-0.1022653877735138,-0.5530605912208557,0.04908113554120064,8.89565658569336
1689018015594474109,-0.2087918221950531,-0.14274543523788452,-0.1299622654914856,-0.7553706169128418,0.20111294090747833,8.713696479797363
1689018015604474109,-0.20985709130764008,-0.14061491191387177,-0.11824434995651245,-0.6416460275650024,0.5602431893348694,8.435969352722168
1689018015614474109,-0.185356006026268,-0.14168016612529755,-0.0511326938867569,-0.15682020783424377,0.894234299659729,8.092401504516602
1689018015622507965,-0.14061491191387177,-0.15020228922367096,0.055393751710653305,0.2861070930957794,1.2773065567016602,7.815871238708496
1689018015631507965,-0.08309062570333481,-0.15872439742088318,0.18642127513885498,0.5135562419891357,1.0618284940719604,7.8960771560668945
1689018015641507965,-0.041545312851667404,-0.16298545897006989,0.3398193418979645,0.47884032130241394,0.325611412525177,8.165424346923828
1689018015652507965,-0.01810949482023716,-0.15659387409687042,0.4729773998260498,0.05027823522686958,-0.038307227194309235,8.3892822265625
1689018015661507965,0.0,-0.13635385036468506,0.5624596476554871,-0.6488286256790161,-0.10175357013940811,8.641870498657227
1689018015670507965,0.009587380103766918,-0.09693906456232071,0.6061354875564575,-1.316810965538025,-0.10654197633266449,8.905233383178711
1689018015681507965,0.008522115647792816,-0.044741105288267136,0.6157228350639343,-1.667561411857605,-0.1975216418504715,9.17817211151123
1689018015690507965,0.0,0.012783173471689224,0.6114617586135864,-1.3934253454208374,0.26815059781074524,9.26915168762207
1689018015699507965,0.014913702383637428,0.052197955548763275,0.605070173740387,-0.5327098965644836,1.3539210557937622,9.136273384094238
1689018015709507965,0.0511326938867569,0.06817692518234253,0.5656554102897644,0.15322890877723694,2.009932279586792,9.059659004211426
1689018015719507965,0.08948221057653427,0.07563377171754837,0.5049353241920471,0.18914192914962769,2.0446481704711914,9.188945770263672
1689018015729507965,0.11824434995651245,0.08628641813993454,0.43356263637542725,-0.14844051003456116,1.8818424940109253,9.39484691619873
1689018015738507965,0.13528858125209808,0.1065264418721199,0.3579288423061371,-0.5315127968788147,1.7812860012054443,9.546878814697266
1689018015748507965,0.14913702011108398,0.13209278881549835,0.2822950780391693,-0.8595184087753296,1.790862798690796,9.616311073303223
1689018015758507965,0.16405072808265686,0.1619201898574829,0.21092236042022705,-1.0773907899856567,1.9393033981323242,9.62947940826416
1689018015768507965,0.18429075181484222,0.1906823366880417,0.15233281254768372,-1.1073182821273804,2.097320556640625,9.642646789550781
1689018015777507965,0.20772656798362732,0.21198762953281403,0.1161138266324997,-0.9756371974945068,2.0829553604125977,9.684545516967773
1689018015787507965,0.22903186082839966,0.22583605349063873,0.09587380290031433,-0.7817068696022034,1.9548656940460205,9.786299705505371
1689018015797507965,0.24394555389881134,0.23116238415241241,0.09800432622432709,-0.5255272388458252,1.647210717201233,9.943119049072266
1689018015807507965,0.24820661544799805,0.22583605349063873,0.11291802674531937,-0.2537853717803955,1.359906554222107,10.113107681274414
1689018015816507965,0.2514024078845978,0.21198762953281403,0.11930961906909943,0.0,1.5203180313110352,10.291476249694824
1689018015826507965,0.2652508318424225,0.18748654425144196,0.11398329585790634,0.25498247146606445,1.964442491531372,10.435128211975098
1689018015836507965,0.2865561246871948,0.15446333587169647,0.10013485699892044,0.4345476031303406,2.191891670227051,10.557231903076172
1689018015845507965,0.30466562509536743,0.1203748807311058,0.07243797928094864,0.4189852774143219,2.0649988651275635,10.763134002685547
1689018015855507965,0.3110572099685669,0.0884169489145279,0.044741105288267136,0.24420857429504395,1.6747440099716187,11.039664268493652
1689018015865507965,0.3004045784473419,0.06391586363315582,0.03302319720387459,-0.011971008032560349,1.1312602758407593,11.30182933807373
1689018015875507965,0.2727077007293701,0.0511326938867569,0.020240023732185364,-0.27054479718208313,0.7254431247711182,11.510124206542969
1689018015884507965,0.23968449234962463,0.04367584362626076,-0.001065264455974102,-0.3770867586135864,0.6260837316513062,11.627440452575684
1689018015894507965,0.2130528837442398,0.03621898964047432,-0.03302319720387459,-0.333991140127182,0.7960720658302307,11.627440452575684
1689018015903507965,0.20026971399784088,0.027696875855326653,-0.05432848632335663,-0.2585737705230713,1.3479355573654175,11.57596492767334
1689018015914507965,0.2045307755470276,0.012783173471689224,-0.04687163606286049,-0.10534487664699554,1.932120680809021,11.461043357849121
1689018015923507965,0.21944446861743927,-0.006391586735844612,-0.027696875855326653,0.038307227194309235,2.03507137298584,11.307814598083496
1689018015932507965,0.2269013226032257,-0.02130528911948204,-0.012783173471689224,-0.014365210197865963,1.5705963373184204,11.268310546875
1689018015942507965,0.2130528837442398,-0.026631610468029976,-0.02556634694337845,-0.04908113554120064,0.9576806426048279,11.330559730529785
1689018015952507965,0.185356006026268,-0.02876213937997818,-0.05752427875995636,0.08499415963888168,0.7769184112548828,11.340136528015137
1689018015962507965,0.15978966653347015,-0.03302319720387459,-0.09693906456232071,0.23822306096553802,0.8858546018600464,11.201272010803223
1689018015972507965,0.13315805792808533,-0.03302319720387459,-0.14700649678707123,0.16160860657691956,0.7601590156555176,11.015722274780273
1689018015981507965,0.10013485699892044,-0.026631610468029976,-0.1896170675754547,-0.0802057534456253,0.5147533416748047,10.9307279586792
1689018015991507965,0.0649811327457428,-0.014913702383637428,-0.2087918221950531,-0.29209259152412415,0.5111620426177979,10.791864395141602
1689018016001507965,0.03515372797846794,0.001065264455974102,-0.2269013226032257,-0.3687070608139038,0.6811503767967224,10.462660789489746
1689018016010507965,0.01065264455974102,0.020240023732185364,-0.250337153673172,-0.24779987335205078,0.9720458984375,10.074800491333008
1689018016021507965,-0.003195793367922306,0.03621898964047432,-0.2695119082927704,-0.04668693244457245,1.3718775510787964,9.68694019317627
1689018016030507965,-0.00532632227987051,0.047936901450157166,-0.2833603322505951,0.11133037507534027,1.6508020162582397,9.376891136169434
1689018016040507965,-0.003195793367922306,0.05752427875995636,-0.2918824553489685,0.15921440720558167,1.7058687210083008,9.208099365234375
1689018016049507965,-0.004261057823896408,0.07243797928094864,-0.29401299357414246,0.12090718746185303,1.5873557329177856,9.114726066589355
1689018016059507965,-0.014913702383637428,0.08948221057653427,-0.29507824778556824,-0.09457096457481384,1.138442873954773,9.034520149230957
1689018016068507965,-0.03834952041506767,0.11504855751991272,-0.2790992856025696,-0.39384618401527405,0.5674257874488831,8.925583839416504
1689018016078507965,-0.07137271761894226,0.14913702011108398,-0.22050973773002625,-0.5578489899635315,0.1711854189634323,8.78193187713623
1689018016088507965,-0.10439591109752655,0.1810949593782425,-0.1342233121395111,-0.5590460896492004,-0.09816227108240128,8.63708209991455
1689018016098507965,-0.13635385036468506,0.2087918221950531,-0.05006742849946022,-0.39384618401527405,-0.19393032789230347,8.494627952575684
1689018016107507965,-0.16298545897006989,0.22903186082839966,0.012783173471689224,-0.0933738648891449,-0.09217676520347595,8.344989776611328
1689018016117507965,-0.18216021358966827,0.23542344570159912,0.03302319720387459,0.29448679089546204,0.011971008032560349,8.216899871826172
1689018016127507965,-0.19707392156124115,0.22796659171581268,-0.00532632227987051,0.6500257253646851,0.0802057534456253,8.13908863067627
1689018016137507965,-0.2087918221950531,0.21092236042022705,-0.07989483326673508,0.6943184733390808,0.09457096457481384,8.078036308288574
1689018016146507965,-0.22477079927921295,0.19387812912464142,-0.1576591432094574,0.3016694188117981,-0.05147533491253853,7.95832633972168
1689018016156507965,-0.24714134633541107,0.18748654425144196,-0.2034655064344406,-0.30885201692581177,-0.2214636504650116,7.8062944412231445
1689018016166507965,-0.27164241671562195,0.19174760580062866,-0.20026971399784088,-0.7433996200561523,-0.1951274424791336,7.693767070770264
1689018016176507965,-0.2929477095603943,0.19707392156124115,-0.16511598229408264,-0.8894459009170532,-0.1711854189634323,7.6099700927734375
1689018016185507965,-0.30786141753196716,0.19707392156124115,-0.12463594228029251,-0.8020575642585754,-0.06823474913835526,7.475894451141357
1689018016195507965,-0.3185140788555145,0.19600865244865417,-0.09054747968912125,-0.5422866940498352,0.31364041566848755,7.668627738952637
1689018016205507965,-0.3057308793067932,0.17257283627986908,-0.07243797928094864,-0.3890577554702759,0.7841010689735413,7.838616371154785
1689018016214507965,-0.287621408700943,0.15552860498428345,-0.05752427875995636,-0.49559974670410156,1.1971008777618408,7.72130012512207
1689018016224507965,-0.2599245309829712,0.14061491191387177,-0.04048004746437073,-0.7673416137695312,1.422155737876892,7.833827972412109
1689018016234507965,-0.22796659171581268,0.12783172726631165,-0.029827404767274857,-0.9612719416618347,1.4832079410552979,7.981071472167969
1689018016243507965,-0.19813919067382812,0.11824434995651245,-0.019174760207533836,-0.9720458984375,1.502361536026001,8.090007781982422
1689018016253507965,-0.16831177473068237,0.11078750342130661,-0.008522115647792816,-0.9277531504631042,1.5658079385757446,8.224082946777344
1689018016263507965,-0.14274543523788452,0.10759171098470688,-0.00532632227987051,-0.9528922438621521,1.5670050382614136,8.349778175354004
1689018016273507965,-0.12250541150569916,0.10972223430871964,-0.006391586735844612,-1.0223240852355957,1.460463047027588,8.516175270080566
1689018016282507965,-0.11078750342130661,0.11185276508331299,-0.015978965908288956,-1.0546457767486572,1.2533645629882812,8.744821548461914
1689018016292507965,-0.10865697264671326,0.11504855751991272,-0.026631610468029976,-0.9744400978088379,1.070208191871643,8.969876289367676
1689018016302507965,-0.10972223430871964,0.11398329585790634,-0.02876213937997818,-0.833182156085968,0.9768342971801758,9.17697525024414
1689018016311507965,-0.11398329585790634,0.10759171098470688,-0.02556634694337845,-0.7362170219421387,0.9241618514060974,9.364919662475586
1689018016321507965,-0.11717908829450607,0.09693906456232071,-0.019174760207533836,-0.6859387755393982,0.9648632407188416,9.525331497192383
1689018016331507965,-0.1161138266324997,0.08415588736534119,-0.013848437927663326,-0.6404489278793335,1.058237075805664,9.690530776977539
1689018016340507965,-0.11078750342130661,0.07030745595693588,-0.01065264455974102,-0.5351040959358215,1.2473790645599365,9.831789016723633
1689018016350507965,-0.09480853378772736,0.05432848632335663,-0.013848437927663326,-0.456095427274704,1.499967336654663,9.898826599121094
1689018016360507965,-0.07456851005554199,0.04048004746437073,-0.017044231295585632,-0.4620809257030487,1.6531962156295776,9.913191795349121
1689018016369507965,-0.052197955548763275,0.030892668291926384,-0.019174760207533836,-0.5123591423034668,1.6639701128005981,9.945513725280762
1689018016379507965,-0.03302319720387459,0.023435818031430244,-0.02556634694337845,-0.6141127347946167,1.5191209316253662,9.99459457397461
1689018016389507965,-0.019174760207533836,0.023435818031430244,-0.030892668291926384,-0.7577648162841797,1.2904746532440186,10.04846477508545
1689018016399507965,-0.009587380103766918,0.027696875855326653,-0.030892668291926384,-0.8200140595436096,1.2114660739898682,10.134655952453613
1689018016408507965,0.00532632227987051,0.030892668291926384,-0.026631610468029976,-0.7541735172271729,1.3682862520217896,10.204087257385254
1689018016418507965,0.02876213937997818,0.030892668291926384,-0.023435818031430244,-0.730231523513794,1.6555904150009155,10.232817649841309
1689018016428507965,0.06285060197114944,0.030892668291926384,-0.02130528911948204,-0.7948749661445618,1.8363527059555054,10.287884712219238
1689018016438507965,0.09374327212572098,0.03195793181657791,-0.017044231295585632,-0.849941611289978,1.6819266080856323,10.359710693359375
1689018016447507965,0.11291802674531937,0.03515372797846794,-0.014913702383637428,-0.8056488633155823,1.256955862045288,10.469843864440918
1689018016457507965,0.11717908829450607,0.03195793181657791,-0.019174760207533836,-0.608127236366272,0.6955155730247498,10.663774490356445
1689018016467507965,0.1022653877735138,0.019174760207533836,-0.030892668291926384,-0.325611412525177,0.2238578498363495,10.878055572509766
1689018016477507965,0.08309062570333481,-0.002130528911948204,-0.044741105288267136,-0.06224924325942993,0.08379705995321274,11.049241065979004
1689018016486507965,0.06924218684434891,-0.030892668291926384,-0.06817692518234253,0.17238251864910126,0.28371289372444153,11.171344757080078
1689018016496507965,0.07243797928094864,-0.06711165606975555,-0.09587380290031433,0.3471592366695404,0.7398083209991455,11.250353813171387
1689018016505507965,0.09054747968912125,-0.1022653877735138,-0.10120011866092682,0.2537853717803955,1.1348515748977661,11.243170738220215
1689018016516507965,0.11291802674531937,-0.12783172726631165,-0.0788295716047287,-0.152031809091568,1.181538462638855,11.203666687011719
1689018016525507965,0.12783172726631165,-0.1395496428012848,-0.04048004746437073,-0.5027823448181152,0.8930371999740601,11.220425605773926
1689018016535507965,0.12783172726631165,-0.14274543523788452,0.001065264455974102,-0.8319850564002991,0.6248866319656372,11.273098945617676
1689018016544507965,0.1161138266324997,-0.13528858125209808,0.04580637067556381,-1.1121066808700562,0.36152446269989014,11.36168384552002
1689018016555507965,0.08948221057653427,-0.12463594228029251,0.07989483326673508,-1.2557587623596191,-0.0802057534456253,11.461043357849121
1689018016564507965,0.0511326938867569,-0.10865697264671326,0.09800432622432709,-1.3299790620803833,-0.29807811975479126,11.508927345275879
1689018016574507965,0.014913702383637428,-0.09800432622432709,0.09054747968912125,-1.235408067703247,-0.1388636976480484,11.489773750305176
1689018016583507965,-0.01065264455974102,-0.09480853378772736,0.06604639440774918,-1.116895079612732,0.2214636504650116,11.404779434204102
1689018016593507965,-0.023435818031430244,-0.09906959533691406,0.041545312851667404,-0.933738648891449,0.5877764821052551,11.335348129272461
1689018016603507965,-0.019174760207533836,-0.11824434995651245,0.023435818031430244,-0.6967126727104187,0.9301473498344421,11.257535934448242
1689018016612507965,-0.006391586735844612,-0.14274543523788452,0.019174760207533836,-0.6667851805686951,1.0618284940719604,11.12106704711914
1689018016623507965,0.00532632227987051,-0.1619201898574829,0.02876213937997818,-0.9828197956085205,0.7924807667732239,10.81820011138916
1689018016632507965,-0.001065264455974102,-0.15978966653347015,0.047936901450157166,-1.3419500589370728,0.3016694188117981,10.564414978027344
1689018016641507965,-0.019174760207533836,-0.1576591432094574,0.06604639440774918,-1.4532804489135742,-0.30047231912612915,10.29746150970459
1689018016651507965,-0.055393751710653305,-0.1438107043504715,0.07563377171754837,-1.4437036514282227,-0.7062894701957703,9.926360130310059
1689018016662507965,-0.08735168725252151,-0.12889699637889862,0.09054747968912125,-1.4652514457702637,-0.6260837316513062,9.75397777557373
1689018016671507965,-0.1065264418721199,-0.1161138266324997,0.11398329585790634,-1.4700398445129395,-0.26575639843940735,9.619902610778809
1689018016680507965,-0.11078750342130661,-0.1065264418721199,0.1342233121395111,-1.4532804489135742,0.0454898327589035,9.454702377319336
1689018016690507965,-0.10759171098470688,-0.10120011866092682,0.14274543523788452,-1.4748282432556152,0.22864626348018646,9.308655738830566
1689018016700507965,-0.10120011866092682,-0.09587380290031433,0.1395496428012848,-1.546654224395752,0.37229835987091064,9.166200637817383
1689018016709507965,-0.09587380290031433,-0.08735168725252151,0.13741911947727203,-1.6328455209732056,0.45250412821769714,9.032125473022461
1689018016719507965,-0.09480853378772736,-0.07669904083013535,0.13635385036468506,-1.6783353090286255,0.4034229815006256,8.937554359436035
1689018016729507965,-0.09906959533691406,-0.06391586363315582,0.13848437368869781,-1.5897499322891235,0.24181437492370605,8.893261909484863
1689018016739507965,-0.11398329585790634,-0.05432848632335663,0.14061491191387177,-1.304839849472046,-0.0071826050989329815,8.846574783325195
1689018016748507965,-0.13528858125209808,-0.05006742849946022,0.1438107043504715,-0.8786720037460327,-0.1867477297782898,8.789113998413086
1689018016758507965,-0.15552860498428345,-0.055393751710653305,0.1395496428012848,-0.3902548849582672,-0.13168108463287354,8.689754486083984
1689018016768507965,-0.16831177473068237,-0.07030745595693588,0.14168016612529755,-0.011971008032560349,0.02274491637945175,8.544905662536621
1689018016778507965,-0.1768338978290558,-0.09054747968912125,0.1438107043504715,0.20949263870716095,0.10295066982507706,8.380903244018555
1689018016787507965,-0.18002969026565552,-0.11717908829450607,0.13635385036468506,0.3758896589279175,0.1843535304069519,8.2312650680542
1689018016797507965,-0.17896442115306854,-0.14594122767448425,0.12357067316770554,0.47165772318840027,0.3196259140968323,8.135497093200684
1689018016807507965,-0.17470337450504303,-0.1757686287164688,0.10972223430871964,0.5207388401031494,0.4967968463897705,8.043320655822754
1689018016816507965,-0.16618125140666962,-0.20559602975845337,0.09693906456232071,0.46327802538871765,0.7242460250854492,7.971494197845459
1689018016826507965,-0.15659387409687042,-0.23116238415241241,0.09054747968912125,0.28371289372444153,0.8008604645729065,7.940369606018066
1689018016835507965,-0.15126754343509674,-0.2514024078845978,0.07989483326673508,0.16759411990642548,0.7864952683448792,8.012195587158203
1689018016846507965,-0.14274543523788452,-0.26631611585617065,0.0649811327457428,-0.010773907415568829,0.9804255962371826,8.149862289428711
1689018016855507965,-0.12889699637889862,-0.2727077007293701,0.06604639440774918,-0.37469255924224854,1.2952630519866943,8.219294548034668
1689018016865507965,-0.10865697264671326,-0.27057716250419617,0.07456851005554199,-0.6177040338516235,1.4975731372833252,8.283937454223633
1689018016874507965,-0.08628641813993454,-0.2631203234195709,0.08628641813993454,-0.7062894701957703,1.5873557329177856,8.359354972839355
1689018016885507965,-0.06391586363315582,-0.250337153673172,0.09587380290031433,-0.7817068696022034,1.6771382093429565,8.44315242767334
1689018016894507965,-0.04048004746437073,-0.23755396902561188,0.1022653877735138,-0.7326257228851318,1.8160020112991333,8.56884765625
1689018016903507965,-0.015978965908288956,-0.22903186082839966,0.10865697264671326,-0.5171475410461426,1.8818424940109253,8.7484130859375
1689018016913507965,0.008522115647792816,-0.23009711503982544,0.10120011866092682,-0.2885012924671173,1.8495208024978638,8.967482566833496
1689018016924507965,0.030892668291926384,-0.23968449234962463,0.0884169489145279,-0.16998831927776337,1.7753005027770996,9.169792175292969
1689018016933507965,0.05326322093605995,-0.24927188456058502,0.07669904083013535,-0.2298433631658554,1.7334020137786865,9.367314338684082
1689018016943507965,0.07669904083013535,-0.2556634545326233,0.06072007119655609,-0.4273650050163269,1.742978811264038,9.560047149658203
1689018016952507965,0.10013485699892044,-0.25672873854637146,0.04048004746437073,-0.6141127347946167,1.8171991109848022,9.758766174316406
1689018016962507965,0.12676647305488586,-0.250337153673172,0.02556634694337845,-0.7781155109405518,1.987187385559082,9.913191795349121
1689018016971507965,0.1576591432094574,-0.23968449234962463,0.015978965908288956,-0.8846575021743774,2.0697872638702393,10.013748168945312
1689018016981507965,0.185356006026268,-0.22370553016662598,0.007456851191818714,-0.9062053561210632,2.0183119773864746,10.138246536254883
1689018016991507965,0.2087918221950531,-0.2045307755470276,0.002130528911948204,-0.8846575021743774,1.9369091987609863,10.285490036010742
1689018017001507965,0.22583605349063873,-0.18216021358966827,-0.002130528911948204,-0.7757213115692139,1.8531121015548706,10.399214744567871
1689018017010507965,0.23542344570159912,-0.15978966653347015,-0.01065264455974102,-0.5351040959358215,1.7166426181793213,10.551246643066406
1689018017020507965,0.23861923813819885,-0.14274543523788452,-0.024501081556081772,-0.304063618183136,1.4640543460845947,10.755950927734375
1689018017030507965,0.23116238415241241,-0.13102751970291138,-0.047936901450157166,-0.21308395266532898,1.1695674657821655,10.96544361114502
1689018017039507965,0.2173139452934265,-0.1203748807311058,-0.07456851005554199,-0.17477671802043915,0.8906430006027222,11.18211841583252
1689018017049507965,0.1992044448852539,-0.11185276508331299,-0.10013485699892044,-0.1173158809542656,0.5734112858772278,11.39639949798584
1689018017059507965,0.1757686287164688,-0.10439591109752655,-0.1161138266324997,-0.10654197633266449,0.32202011346817017,11.580753326416016
1689018017069507965,0.15126754343509674,-0.09800432622432709,-0.11291802674531937,-0.22266075015068054,0.2908954918384552,11.690886497497559
1689018017078507965,0.13528858125209808,-0.08628641813993454,-0.07776430249214172,-0.38546645641326904,0.6584054827690125,11.737573623657227
1689018017088507965,0.13102751970291138,-0.07137271761894226,-0.01065264455974102,-0.3076549172401428,1.1037269830703735,11.768698692321777
1689018017098507965,0.12889699637889862,-0.06285060197114944,0.049002163112163544,0.10893617570400238,1.0486602783203125,11.826159477233887
1689018017108507965,0.1161138266324997,-0.06604639440774918,0.06817692518234253,0.5949591398239136,0.507570743560791,11.918335914611816
1689018017117507965,0.08628641813993454,-0.07776430249214172,0.049002163112163544,0.912190854549408,-0.12928688526153564,12.038045883178711
1689018017127507965,0.04261057823896408,-0.092678003013134,0.01065264455974102,1.0570399761199951,-0.6488286256790161,12.09430980682373
1689018017137507965,-0.013848437927663326,-0.1065264418721199,-0.03834952041506767,1.1073182821273804,-1.0809820890426636,12.011710166931152
1689018017147507965,-0.07563377171754837,-0.11504855751991272,-0.0884169489145279,1.0223240852355957,-1.400607943534851,11.81179428100586
1689018017156507965,-0.13741911947727203,-0.11398329585790634,-0.12463594228029251,0.7673416137695312,-1.521515130996704,11.54244613647461
1689018017166507965,-0.1906823366880417,-0.10120011866092682,-0.13635385036468506,0.45848962664604187,-1.3611036539077759,11.21324348449707
1689018017175507965,-0.23009711503982544,-0.07669904083013535,-0.1161138266324997,0.23343466222286224,-0.933738648891449,10.814608573913574
1689018017186507965,-0.24927188456058502,-0.044741105288267136,-0.07350324839353561,0.11851298063993454,-0.3579331338405609,10.395623207092285
1689018017195507965,-0.2460760921239853,-0.009587380103766918,-0.020240023732185364,0.015562310814857483,0.2214636504650116,10.041281700134277
1689018017205507965,-0.23009711503982544,0.02876213937997818,0.03621898964047432,-0.05626373738050461,0.6560112833976746,9.807847023010254
1689018017214507965,-0.20559602975845337,0.0649811327457428,0.08628641813993454,0.031124621629714966,0.9014168977737427,9.697713851928711
1689018017224507965,-0.1810949593782425,0.092678003013134,0.11717908829450607,0.28730419278144836,0.933738648891449,9.661800384521484
1689018017234507965,-0.16085493564605713,0.11078750342130661,0.11824434995651245,0.5602431893348694,0.7661445140838623,9.619902610778809
1689018017244507965,-0.14700649678707123,0.11930961906909943,0.08948221057653427,0.8607155084609985,0.5518634915351868,9.557653427124023
1689018017253507965,-0.13741911947727203,0.11504855751991272,0.03515372797846794,1.1971008777618408,0.4189852774143219,9.510966300964355
1689018017263507965,-0.12889699637889862,0.10120011866092682,-0.034088462591171265,1.3431471586227417,0.3447650372982025,9.385270118713379
1689018017272507965,-0.12357067316770554,0.08628641813993454,-0.10013485699892044,1.3072340488433838,0.26575639843940735,9.17817211151123
1689018017282507965,-0.11930961906909943,0.06924218684434891,-0.15233281254768372,1.303642749786377,0.1843535304069519,8.999804496765137
1689018017292507965,-0.11930961906909943,0.049002163112163544,-0.19281286001205444,1.314416766166687,0.09457096457481384,8.821435928344727
1689018017301507965,-0.12250541150569916,0.02876213937997818,-0.2173139452934265,1.2282254695892334,0.019153613597154617,8.60356330871582
1689018017311507965,-0.12783172726631165,0.011717909015715122,-0.22903186082839966,1.0402805805206299,-0.02753331884741783,8.418012619018555
1689018017321507965,-0.13528858125209808,-0.002130528911948204,-0.23009711503982544,0.8319850564002991,-0.09576806426048279,8.316259384155273
1689018017331507965,-0.14594122767448425,-0.011717909015715122,-0.2173139452934265,0.6212953329086304,-0.17956513166427612,8.26478385925293
1689018017340507965,-0.1533980816602707,-0.02130528911948204,-0.20240023732185364,0.43335050344467163,-0.20111294090747833,8.309077262878418
1689018017350507965,-0.15978966653347015,-0.019174760207533836,-0.1896170675754547,0.25977087020874023,-0.09217676520347595,8.277952194213867
1689018017360507965,-0.1533980816602707,-0.023435818031430244,-0.1715075671672821,0.0933738648891449,0.10773907601833344,8.061277389526367
1689018017369507965,-0.13848437368869781,-0.015978965908288956,-0.14700649678707123,-0.0011971008498221636,0.41778817772865295,8.000225067138672
1689018017379507965,-0.10865697264671326,-0.006391586735844612,-0.13102751970291138,-0.031124621629714966,0.7948749661445618,7.905653953552246
1689018017389507965,-0.06604639440774918,0.003195793367922306,-0.11504855751991272,0.0347159244120121,1.115697979927063,7.724891662597656
1689018017399507965,-0.015978965908288956,0.009587380103766918,-0.09906959533691406,0.1711854189634323,1.400607943534851,7.672219276428223
1689018017409507965,0.03941478580236435,0.012783173471689224,-0.08415588736534119,0.2885012924671173,1.6196774244308472,7.656656742095947
1689018017418507965,0.09800432622432709,0.011717909015715122,-0.06817692518234253,0.30885201692581177,1.6364368200302124,7.7416510581970215
1689018017428507965,0.14913702011108398,0.012783173471689224,-0.05432848632335663,0.22744916379451752,1.5263035297393799,7.890091419219971
1689018017437507965,0.1949433982372284,0.013848437927663326,-0.04580637067556381,0.1388636976480484,1.4688427448272705,8.020575523376465
1689018017448507965,0.23755396902561188,0.017044231295585632,-0.03621898964047432,0.07661445438861847,1.4772224426269531,8.118738174438477
1689018017457507965,0.2780340313911438,0.024501081556081772,-0.03195793181657791,0.07062894850969315,1.5538368225097656,8.238448143005371
1689018017467507965,0.3153182864189148,0.027696875855326653,-0.041545312851667404,0.16879121959209442,1.5945383310317993,8.374917030334473
1689018017476507965,0.34621095657348633,0.02556634694337845,-0.06711165606975555,0.2861070930957794,1.4425065517425537,8.562862396240234
1689018017487507965,0.36005938053131104,0.017044231295585632,-0.10013485699892044,0.35314473509788513,1.1875240802764893,8.822632789611816
1689018017496507965,0.362189918756485,0.001065264455974102,-0.13102751970291138,0.4213795065879822,0.9588777422904968,9.074024200439453
1689018017506507965,0.3536677956581116,-0.019174760207533836,-0.148071750998497,0.4644751250743866,0.7242460250854492,9.241618156433105
1689018017515507965,0.3344930410385132,-0.03834952041506767,-0.15020228922367096,0.4381389021873474,0.5243301391601562,9.289502143859863
1689018017525507965,0.3110572099685669,-0.05326322093605995,-0.14487595856189728,0.3543418347835541,0.42018237709999084,9.29069995880127
1689018017535507965,0.2822950780391693,-0.05965480953454971,-0.1257012039422989,0.23822306096553802,0.39384618401527405,9.314641952514648
1689018017544507965,0.25353294610977173,-0.06178533658385277,-0.09587380290031433,0.14006079733371735,0.4118026793003082,9.410409927368164
1689018017555507965,0.222640261054039,-0.06178533658385277,-0.06178533658385277,0.06224924325942993,0.4489127993583679,9.57201862335205
1689018017564507965,0.18642127513885498,-0.058589544147253036,-0.027696875855326653,0.0454898327589035,0.456095427274704,9.736021041870117
1689018017573507965,0.15020228922367096,-0.055393751710653305,0.008522115647792816,0.15442600846290588,0.43933600187301636,9.93593692779541
1689018017583507965,0.11078750342130661,-0.05432848632335663,0.044741105288267136,0.28730419278144836,0.42856210470199585,10.155006408691406
1689018017593507965,0.07243797928094864,-0.05326322093605995,0.07456851005554199,0.3363853394985199,0.3172317147254944,10.36449909210205
1689018017603507965,0.030892668291926384,-0.049002163112163544,0.09693906456232071,0.34596213698387146,0.13168108463287354,10.613495826721191
1689018017612507965,-0.011717909015715122,-0.04261057823896408,0.10546118021011353,0.3387795388698578,0.035913024097681046,10.884040832519531
1689018017622507965,-0.0511326938867569,-0.034088462591171265,0.10333064943552017,0.2346317619085312,0.12449848651885986,11.098321914672852
1689018017632507965,-0.07776430249214172,-0.019174760207533836,0.10439591109752655,-0.019153613597154617,0.48482584953308105,11.208455085754395
1689018017641507965,-0.08628641813993454,0.00532632227987051,0.13102751970291138,-0.27892449498176575,1.095347285270691,11.238382339477539
1689018017651507965,-0.07563377171754837,0.03302319720387459,0.1757686287164688,-0.3148375153541565,1.6077064275741577,11.281477928161621
1689018017661507965,-0.05432848632335663,0.0511326938867569,0.20559602975845337,-0.06464344263076782,1.6962919235229492,11.419144630432129
1689018017671507965,-0.03834952041506767,0.055393751710653305,0.1906823366880417,0.3471592366695404,1.338358759880066,11.704054832458496
1689018017680507965,-0.03515372797846794,0.04367584362626076,0.13528858125209808,0.6224924325942993,0.6799532771110535,12.05959415435791
1689018017690507965,-0.052197955548763275,0.023435818031430244,0.06178533658385277,0.5985504388809204,-0.07541735470294952,12.291831016540527
1689018017700507965,-0.08628641813993454,0.0,-0.006391586735844612,0.32441431283950806,-0.6272808313369751,12.324152946472168
1689018017710507965,-0.12357067316770554,-0.017044231295585632,-0.05645901337265968,-0.10055647045373917,-0.790086567401886,12.18768310546875
1689018017719507965,-0.15552860498428345,-0.020240023732185364,-0.07776430249214172,-0.5494692921638489,-0.6392518281936646,11.926715850830078
1689018017729507965,-0.1768338978290558,-0.009587380103766918,-0.06711165606975555,-0.9241618514060974,-0.3172317147254944,11.590330123901367
1689018017739507965,-0.18429075181484222,0.007456851191818714,-0.03195793181657791,-1.1563993692398071,0.04189852997660637,11.293449401855469
1689018017749507965,-0.17470337450504303,0.030892668291926384,0.019174760207533836,-1.2282254695892334,0.416591078042984,10.953472137451172
1689018017758507965,-0.16085493564605713,0.06391586363315582,0.07137271761894226,-1.1504138708114624,0.6619967818260193,10.600327491760254
1689018017767507965,-0.13848437368869781,0.08096009492874146,0.11930961906909943,-1.0761936902999878,0.7206547260284424,10.560823440551758
1689018017778507965,-0.1203748807311058,0.1022653877735138,0.15446333587169647,-1.1061211824417114,0.6787561774253845,10.506954193115234
1689018017787507965,-0.10439591109752655,0.12250541150569916,0.16937704384326935,-1.192312479019165,0.5793967843055725,10.32978343963623
1689018017797507965,-0.09054747968912125,0.1395496428012848,0.1672465205192566,-1.213860273361206,0.590170681476593,10.27591323852539
1689018017807507965,-0.07776430249214172,0.15233281254768372,0.15552860498428345,-1.1180921792984009,0.6380547285079956,10.190918922424316
1689018017816507965,-0.06817692518234253,0.15872439742088318,0.13102751970291138,-1.016338586807251,0.6308721303939819,10.090362548828125
1689018017826507965,-0.06178533658385277,0.1619201898574829,0.09800432622432709,-0.8990226984024048,0.5722141861915588,9.965864181518555
1689018017836507965,-0.05752427875995636,0.15872439742088318,0.05326322093605995,-0.7661445140838623,0.5434837937355042,9.773131370544434
1689018017845507965,-0.055393751710653305,0.15020228922367096,-0.001065264455974102,-0.6703764796257019,0.5374982953071594,9.576807022094727
1689018017856507965,-0.05432848632335663,0.14274543523788452,-0.06072007119655609,-0.628477931022644,0.45489832758903503,9.380481719970703
1689018017865507965,-0.058589544147253036,0.13741911947727203,-0.12357067316770554,-0.690727174282074,0.27892449498176575,9.185354232788086
1689018017874507965,-0.07243797928094864,0.14061491191387177,-0.18002969026565552,-0.7781155109405518,0.03950432687997818,8.991424560546875
1689018017884507965,-0.092678003013134,0.15233281254768372,-0.222640261054039,-0.8092401623725891,-0.2059013396501541,8.80467700958252
1689018017894507965,-0.11717908829450607,0.1672465205192566,-0.2460760921239853,-0.7613561153411865,-0.4381389021873474,8.572439193725586
1689018017903507965,-0.1438107043504715,0.18002969026565552,-0.24820661544799805,-0.6260837316513062,-0.5889735817909241,8.323442459106445
1689018017913507965,-0.1672465205192566,0.18855179846286774,-0.2322276532649994,-0.4944026470184326,-0.6224924325942993,8.122328758239746
1689018017923507965,-0.18429075181484222,0.19600865244865417,-0.2034655064344406,-0.41778817772865295,-0.5003881454467773,7.91283655166626
1689018017933507965,-0.19174760580062866,0.20026971399784088,-0.16937704384326935,-0.3842693567276001,-0.28131869435310364,7.728482723236084
1689018017943507965,-0.1906823366880417,0.2034655064344406,-0.12889699637889862,-0.3711012601852417,-0.05626373738050461,7.5968017578125
1689018017952507965,-0.18216021358966827,0.2087918221950531,-0.08628641813993454,-0.363918662071228,0.16519992053508759,7.513004779815674
1689018017962507965,-0.16511598229408264,0.21411815285682678,-0.04367584362626076,-0.3579331338405609,0.38546645641326904,7.463923454284668
1689018017972507965,-0.14487595856189728,0.21624867618083954,0.002130528911948204,-0.40701428055763245,0.5147533416748047,7.442375659942627
1689018017981507965,-0.12250541150569916,0.2173139452934265,0.0511326938867569,-0.49559974670410156,0.5614402890205383,7.471106052398682
1689018017991507965,-0.10013485699892044,0.2130528837442398,0.10546118021011353,-0.5363011956214905,0.6667851805686951,7.530961513519287
1689018018001507965,-0.07669904083013535,0.2045307755470276,0.15446333587169647,-0.5734112858772278,0.8894459009170532,7.59560489654541
1689018018010507965,-0.049002163112163544,0.18855179846286774,0.18322548270225525,-0.4692635238170624,1.092953085899353,7.723694324493408
1689018018020507965,-0.02130528911948204,0.15978966653347015,0.1992044448852539,-0.21428105235099792,1.1863269805908203,7.892485618591309
1689018018030507965,0.00532632227987051,0.12357067316770554,0.19281286001205444,-0.035913024097681046,1.2844891548156738,8.08162784576416
1689018018040507965,0.034088462591171265,0.08096009492874146,0.17257283627986908,-0.014365210197865963,1.4281412363052368,8.254010200500488
1689018018050507965,0.06391586363315582,0.03941478580236435,0.15020228922367096,-0.06224924325942993,1.5682021379470825,8.415618896484375
1689018018059507965,0.09587380290031433,0.001065264455974102,0.12676647305488586,-0.08858545869588852,1.7381904125213623,8.59997272491455
1689018018069507965,0.12889699637889862,-0.03621898964047432,0.10546118021011353,-0.090979665517807,1.8770540952682495,8.754398345947266
1689018018079507965,0.16085493564605713,-0.07243797928094864,0.08415588736534119,-0.0011971008498221636,1.8842366933822632,8.954314231872559
1689018018089507965,0.1896170675754547,-0.10972223430871964,0.07137271761894226,0.11252747476100922,1.843535304069519,9.172186851501465
1689018018098507965,0.21411815285682678,-0.14913702011108398,0.058589544147253036,0.18315643072128296,1.8124107122421265,9.373299598693848
1689018018107507965,0.2364886999130249,-0.18748654425144196,0.034088462591171265,0.15442600846290588,1.766920804977417,9.586383819580078
1689018018119337039,0.2556634545326233,-0.22157500684261322,-0.007456851191818714,0.06823474913835526,1.646013617515564,9.795876502990723
1689018018129337039,0.27164241671562195,-0.250337153673172,-0.06285060197114944,0.0071826050989329815,1.4676456451416016,10.004171371459961
1689018018139337039,0.2822950780391693,-0.27696874737739563,-0.1161138266324997,-0.028730420395731926,1.1121066808700562,10.260351181030273
1689018018149337039,0.2780340313911438,-0.29827404022216797,-0.15659387409687042,-0.02274491637945175,0.5099649429321289,10.588356971740723
1689018018158337039,0.258859246969223,-0.3153182864189148,-0.1810949593782425,-0.03950432687997818,-0.208295539021492,10.929530143737793
1689018018168337039,0.21944446861743927,-0.3302319645881653,-0.19387812912464142,-0.07661445438861847,-0.8475474119186401,11.27190113067627
1689018018178337039,0.1672465205192566,-0.3398193418979645,-0.1949433982372284,-0.15682020783424377,-1.1540051698684692,11.580753326416016
1689018018187337039,0.11078750342130661,-0.3430151343345642,-0.1715075671672821,-0.35314473509788513,-1.0247182846069336,11.786654472351074
1689018018197337039,0.0649811327457428,-0.33662354946136475,-0.11398329585790634,-0.4704606235027313,-0.6955155730247498,11.877634048461914
1689018018206337039,0.024501081556081772,-0.3302319645881653,-0.05006742849946022,-0.15322890877723694,-0.5422866940498352,11.97220516204834
1689018018216337039,-0.014913702383637428,-0.3398193418979645,-0.020240023732185364,0.5602431893348694,-0.5817909836769104,12.157755851745605
1689018018226337039,-0.05645901337265968,-0.3675162196159363,-0.023435818031430244,1.1552022695541382,-0.7541735172271729,12.393585205078125
1689018018236337039,-0.10333064943552017,-0.4037352204322815,-0.04367584362626076,1.2737152576446533,-1.1264718770980835,12.571952819824219
1689018018245337039,-0.16298545897006989,-0.42930155992507935,-0.06711165606975555,1.039083480834961,-1.6388310194015503,12.592303276062012
1689018018255337039,-0.2322276532649994,-0.4356931447982788,-0.092678003013134,0.6356605291366577,-2.032677173614502,12.411540985107422
1689018018265337039,-0.29933929443359375,-0.41971418261528015,-0.11185276508331299,0.07900865375995636,-2.098517656326294,12.087126731872559
1689018018274337039,-0.3557983338832855,-0.3792341351509094,-0.10972223430871964,-0.5566518902778625,-1.8004395961761475,11.641805648803711
1689018018284337039,-0.39095205068588257,-0.3153182864189148,-0.07776430249214172,-1.0606313943862915,-1.2832920551300049,11.152191162109375
1689018018294337039,-0.4048004746437073,-0.23542344570159912,-0.02556634694337845,-1.2880804538726807,-0.690727174282074,10.736797332763672
1689018018303337039,-0.399474173784256,-0.15233281254768372,0.03302319720387459,-1.1240776777267456,-0.12928688526153564,10.414776802062988
1689018018313337039,-0.3792341351509094,-0.07669904083013535,0.07669904083013535,-0.6141127347946167,0.2214636504650116,10.277111053466797
1689018018323337039,-0.3526025414466858,-0.017044231295585632,0.10333064943552017,-0.13527239859104156,0.4141968786716461,10.24000072479248
1689018018333337039,-0.32277512550354004,0.029827404767274857,0.08948221057653427,0.23942016065120697,0.4082113802433014,10.290278434753418
1689018018343337039,-0.2972087860107422,0.06391586363315582,0.04261057823896408,0.5985504388809204,0.19632454216480255,10.377667427062988
1689018018352337039,-0.2822950780391693,0.08948221057653427,-0.020240023732185364,0.7805097699165344,-0.07781155407428741,10.358513832092285
1689018018362337039,-0.27590349316596985,0.11398329585790634,-0.08628641813993454,0.8068459630012512,-0.40462008118629456,10.23880386352539
1689018018371337039,-0.27590349316596985,0.13528858125209808,-0.15126754343509674,0.8164227604866028,-0.6368576288223267,10.037690162658691
1689018018382337039,-0.28016453981399536,0.15233281254768372,-0.20772656798362732,0.8355763554573059,-0.6955155730247498,9.817423820495605
1689018018391337039,-0.2833603322505951,0.16298545897006989,-0.2514024078845978,0.8667010068893433,-0.669179379940033,9.59835433959961
1689018018401337039,-0.2833603322505951,0.16618125140666962,-0.28016453981399536,0.9493009448051453,-0.5710170865058899,9.387664794921875
1689018018410337039,-0.2780340313911438,0.16298545897006989,-0.29933929443359375,1.0127472877502441,-0.4082113802433014,9.168595314025879
1689018018421337039,-0.26631611585617065,0.15659387409687042,-0.3025350868701935,0.9684545993804932,-0.28969839215278625,8.945934295654297
1689018018430337039,-0.250337153673172,0.14913702011108398,-0.287621408700943,0.8978255987167358,-0.2537853717803955,8.730456352233887
1689018018440337039,-0.22796659171581268,0.13528858125209808,-0.258859246969223,0.7972691655158997,-0.18555063009262085,8.289923667907715
1689018018449337039,-0.20985709130764008,0.13635385036468506,-0.22583605349063873,0.7218518257141113,-0.12449848651885986,8.559270858764648
1689018018460337039,-0.17257283627986908,0.11185276508331299,-0.185356006026268,0.7338228225708008,0.0035913025494664907,8.619126319885254
1689018018469337039,-0.14487595856189728,0.10546118021011353,-0.15126754343509674,0.6548141837120056,0.20350714027881622,8.159439086914062
1689018018478337039,-0.10546118021011353,0.09161274135112762,-0.12250541150569916,0.4752490222454071,0.4082113802433014,8.335412979125977
1689018018488337039,-0.06391586363315582,0.08628641813993454,-0.09800432622432709,0.3387795388698578,0.6488286256790161,8.270770072937012
1689018018498337039,-0.01810949482023716,0.08309062570333481,-0.0788295716047287,0.2561795711517334,0.8475474119186401,8.13908863067627
1689018018507337039,0.03302319720387459,0.08309062570333481,-0.0649811327457428,0.15801730751991272,1.0259153842926025,8.135497093200684
1689018018517337039,0.08415588736534119,0.08628641813993454,-0.05432848632335663,0.07302314788103104,1.1480196714401245,8.097189903259277
1689018018527337039,0.13315805792808533,0.092678003013134,-0.047936901450157166,0.011971008032560349,1.1767500638961792,8.135497093200684
1689018018537337039,0.17470337450504303,0.1022653877735138,-0.04580637067556381,-0.020350713282823563,1.1037269830703735,8.243236541748047
1689018018547337039,0.20559602975845337,0.11185276508331299,-0.049002163112163544,0.002394201699644327,0.9780313968658447,8.380903244018555
1689018018556337039,0.22583605349063873,0.12250541150569916,-0.05965480953454971,0.061052143573760986,0.8882488012313843,8.530540466308594
1689018018566337039,0.23861923813819885,0.13102751970291138,-0.0788295716047287,0.10773907601833344,0.8667010068893433,8.676587104797363
1689018018576337039,0.24394555389881134,0.14061491191387177,-0.10013485699892044,0.12330138683319092,0.7841010689735413,8.801085472106934
1689018018585337039,0.2407497614622116,0.15126754343509674,-0.12144014239311218,0.14604629576206207,0.5781996846199036,8.945934295654297
1689018018595337039,0.23116238415241241,0.15978966653347015,-0.13741911947727203,0.15083470940589905,0.3998316824436188,9.047688484191895
1689018018605337039,0.2173139452934265,0.16831177473068237,-0.14168016612529755,0.1304839849472046,0.29448679089546204,9.08838939666748
1689018018615337039,0.20240023732185364,0.17363810539245605,-0.13848437368869781,0.14724339544773102,0.25019407272338867,9.182960510253906
1689018018624337039,0.185356006026268,0.1757686287164688,-0.12676647305488586,0.1951274424791336,0.24420857429504395,9.294290542602539
1689018018634337039,0.16831177473068237,0.1757686287164688,-0.10865697264671326,0.1999158412218094,0.264559268951416,9.398438453674316
1689018018644337039,0.15446333587169647,0.17363810539245605,-0.08628641813993454,0.18076223134994507,0.3711012601852417,9.498994827270508
1689018018653337039,0.14594122767448425,0.17257283627986908,-0.05965480953454971,0.23942016065120697,0.5434837937355042,9.568427085876465
1689018018663337039,0.1438107043504715,0.1672465205192566,-0.03302319720387459,0.3627215623855591,0.711077868938446,9.639056205749512
1689018018673337039,0.14913702011108398,0.15659387409687042,-0.006391586735844612,0.5135562419891357,0.849941611289978,9.762357711791992
1689018018683337039,0.1576591432094574,0.1395496428012848,0.020240023732185364,0.6476315259933472,0.9888052940368652,9.943119049072266
1689018018692337039,0.1715075671672821,0.11930961906909943,0.04261057823896408,0.7493851184844971,1.0474631786346436,10.06163215637207
1689018018702337039,0.18322548270225525,0.09906959533691406,0.05645901337265968,0.8643068075180054,0.9349357485771179,10.29746150970459
1689018018712337039,0.1896170675754547,0.07563377171754837,0.06072007119655609,0.9576806426048279,0.6404489278793335,10.611102104187012
1689018018722337039,0.18642127513885498,0.04687163606286049,0.05645901337265968,0.9277531504631042,0.2585737705230713,10.844536781311035
1689018018731337039,0.17257283627986908,0.020240023732185364,0.049002163112163544,0.7637503147125244,0.004788403399288654,11.0671968460083
1689018018741337039,0.1576591432094574,0.002130528911948204,0.049002163112163544,0.5267243385314941,0.06584054231643677,11.190498352050781
1689018018750337039,0.15020228922367096,-0.008522115647792816,0.06924218684434891,0.3603273630142212,0.355538934469223,11.267112731933594
1689018018761337039,0.15020228922367096,-0.02130528911948204,0.10013485699892044,0.35075053572654724,0.547075092792511,11.355698585510254
1689018018770337039,0.15020228922367096,-0.03515372797846794,0.11398329585790634,0.4321534037590027,0.3974374830722809,11.530475616455078
1689018018780337039,0.1395496428012848,-0.05432848632335663,0.1022653877735138,0.5183446407318115,-0.14245499670505524,11.833341598510742
1689018018789337039,0.1065264418721199,-0.08096009492874146,0.07456851005554199,0.5171475410461426,-0.9253589510917664,12.22000503540039
1689018018799337039,0.049002163112163544,-0.11185276508331299,0.03195793181657791,0.4129997789859772,-1.7549498081207275,12.583924293518066
1689018018808337039,-0.027696875855326653,-0.14274543523788452,-0.013848437927663326,0.19033902883529663,-2.365471124649048,12.751518249511719
1689018018818337039,-0.10865697264671326,-0.1672465205192566,-0.044741105288267136,-0.15921440720558167,-2.5893290042877197,12.666523933410645
1689018018828337039,-0.18322548270225525,-0.17363810539245605,-0.049002163112163544,-0.49320554733276367,-2.406172752380371,12.397175788879395
1689018018838337039,-0.24181503057479858,-0.1757686287164688,-0.034088462591171265,-0.7038952708244324,-1.9524714946746826,12.033257484436035
1689018018847337039,-0.2737729549407959,-0.17257283627986908,-0.004261057823896408,-0.872686505317688,-1.4472949504852295,11.693281173706055
1689018018857337039,-0.2886866629123688,-0.15446333587169647,0.034088462591171265,-1.0199298858642578,-1.0414776802062988,11.190498352050781
1689018018867337039,-0.2865561246871948,-0.14061491191387177,0.0788295716047287,-1.1444283723831177,-0.7948749661445618,10.9678373336792
1689018018877337039,-0.28016453981399536,-0.11504855751991272,0.12250541150569916,-1.2641384601593018,-0.6117185354232788,10.821791648864746
1689018018886337039,-0.2631203234195709,-0.092678003013134,0.1619201898574829,-1.3646949529647827,-0.40222588181495667,10.509347915649414
1689018018896337039,-0.24288028478622437,-0.06924218684434891,0.1992044448852539,-1.3958195447921753,-0.3711012601852417,10.38963794708252
1689018018906337039,-0.22583605349063873,-0.047936901450157166,0.22370553016662598,-1.425747036933899,-0.3926490843296051,10.194510459899902
1689018018915337039,-0.20772656798362732,-0.024501081556081772,0.2407497614622116,-1.482010841369629,-0.14604629576206207,10.071208953857422
1689018018925337039,-0.1810949593782425,-0.003195793367922306,0.24288028478622437,-1.37906014919281,0.21667525172233582,9.9371337890625
1689018018935337039,-0.15020228922367096,0.009587380103766918,0.22903186082839966,-1.1312602758407593,0.4596867263317108,9.749189376831055
1689018018945337039,-0.1203748807311058,0.013848437927663326,0.2087918221950531,-0.9169792532920837,0.5015852451324463,9.63187313079834
1689018018954337039,-0.09693906456232071,0.017044231295585632,0.185356006026268,-0.7697358131408691,0.3818751573562622,9.477447509765625
1689018018964337039,-0.08096009492874146,0.014913702383637428,0.15659387409687042,-0.6021417379379272,0.14604629576206207,9.344569206237793
1689018018974337039,-0.07350324839353561,0.006391586735844612,0.1257012039422989,-0.42018237709999084,-0.11252747476100922,9.238027572631836
1689018018984337039,-0.07456851005554199,-0.006391586735844612,0.09693906456232071,-0.304063618183136,-0.3447650372982025,9.080009460449219
1689018018993337039,-0.08202536404132843,-0.017044231295585632,0.07776430249214172,-0.2214636504650116,-0.5219359397888184,8.87530517578125
1689018019003337039,-0.09054747968912125,-0.027696875855326653,0.07243797928094864,-0.11611878126859665,-0.6476315259933472,8.615534782409668
1689018019012337039,-0.1022653877735138,-0.03621898964047432,0.07669904083013535,-0.08738835901021957,-0.7326257228851318,8.339004516601562
1689018019023337039,-0.11185276508331299,-0.03834952041506767,0.092678003013134,-0.10295066982507706,-0.711077868938446,8.103175163269043
1689018019032337039,-0.1161138266324997,-0.03621898964047432,0.11398329585790634,-0.08259996026754379,-0.5638344883918762,7.86854362487793
1689018019041337039,-0.11291802674531937,-0.03302319720387459,0.13741911947727203,-0.07661445438861847,-0.30286651849746704,7.615955352783203
1689018019052337039,-0.09800432622432709,-0.027696875855326653,0.15978966653347015,-0.0586579404771328,0.06224924325942993,7.406462669372559
1689018019061337039,-0.06924218684434891,-0.022370552644133568,0.17257283627986908,-0.015562310814857483,0.4728548228740692,7.24485445022583
1689018019071337039,-0.03195793181657791,-0.020240023732185364,0.1768338978290558,0.043095629662275314,0.8463503122329712,7.128735542297363
1689018019080337039,0.013848437927663326,-0.017044231295585632,0.17257283627986908,0.08619125932455063,1.114500880241394,7.0772600173950195
1689018019091337039,0.06072007119655609,-0.014913702383637428,0.1619201898574829,0.07541735470294952,1.2413935661315918,7.120355606079102
1689018019100337039,0.10333064943552017,-0.01065264455974102,0.14487595856189728,-0.033518824726343155,1.215057373046875,7.242460250854492
1689018019110337039,0.1395496428012848,-0.004261057823896408,0.12783172726631165,-0.17238251864910126,1.091755986213684,7.417236804962158
1689018019119337039,0.16511598229408264,0.003195793367922306,0.11717908829450607,-0.17956513166427612,0.9876081943511963,7.614758491516113
1689018019129337039,0.185356006026268,0.00532632227987051,0.10759171098470688,-0.0586579404771328,0.9660603404045105,7.781155586242676
1689018019139337039,0.20559602975845337,0.001065264455974102,0.09374327212572098,0.09696516394615173,1.0115501880645752,7.935581207275391
1689018019149337039,0.222640261054039,-0.009587380103766918,0.07030745595693588,0.25019407272338867,1.0414776802062988,8.147468566894531
1689018019158337039,0.23861923813819885,-0.02876213937997818,0.041545312851667404,0.3902548849582672,1.0402805805206299,8.450334548950195
1689018019168337039,0.25246766209602356,-0.05432848632335663,0.009587380103766918,0.48722004890441895,1.0690110921859741,8.772355079650879
1689018019177337039,0.2641855776309967,-0.08309062570333481,-0.022370552644133568,0.5506663918495178,1.114500880241394,9.058462142944336
1689018019187337039,0.2727077007293701,-0.11717908829450607,-0.049002163112163544,0.5590460896492004,1.0893617868423462,9.331400871276855
1689018019197337039,0.27696874737739563,-0.15126754343509674,-0.06924218684434891,0.5267243385314941,0.9624690413475037,9.592369079589844
1689018019207337039,0.27164241671562195,-0.18429075181484222,-0.08415588736534119,0.4620809257030487,0.7960720658302307,9.817423820495605
1689018019217337039,0.258859246969223,-0.21198762953281403,-0.092678003013134,0.3579331338405609,0.6955155730247498,10.008959770202637
1689018019226337039,0.24394555389881134,-0.23435817658901215,-0.09693906456232071,0.25737667083740234,0.689530074596405,10.192116737365723
1689018019236337039,0.22903186082839966,-0.25353294610977173,-0.09800432622432709,0.2059013396501541,0.6751648783683777,10.347739219665527
1689018019245337039,0.21092236042022705,-0.27057716250419617,-0.1022653877735138,0.2932896912097931,0.6260837316513062,10.490194320678711
1689018019255337039,0.19387812912464142,-0.28975191712379456,-0.10972223430871964,0.4537012279033661,0.5805938839912415,10.663774490356445
1689018019265337039,0.1757686287164688,-0.3110572099685669,-0.1203748807311058,0.5530605912208557,0.4908113479614258,10.843338966369629
1689018019275337039,0.15446333587169647,-0.3302319645881653,-0.12889699637889862,0.5315127968788147,0.3172317147254944,11.00015926361084
1689018019285337039,0.12676647305488586,-0.3440804183483124,-0.1395496428012848,0.40462008118629456,0.028730420395731926,11.155782699584961
1689018019294337039,0.08948221057653427,-0.35047200322151184,-0.1533980816602707,0.23942016065120697,-0.27892449498176575,11.334150314331055
1689018019304337039,0.049002163112163544,-0.3483414649963379,-0.16298545897006989,0.040701426565647125,-0.43694180250167847,11.494562149047852
1689018019313337039,0.01065264455974102,-0.3376888334751129,-0.16085493564605713,-0.1999158412218094,-0.3471592366695404,11.595118522644043
1689018019324337039,-0.01810949482023716,-0.3153182864189148,-0.13741911947727203,-0.40940847992897034,-0.0035913025494664907,11.651382446289062
1689018019333337039,-0.03515372797846794,-0.2908172011375427,-0.09374327212572098,-0.4129997789859772,0.4141968786716461,11.706448554992676
1689018019342337039,-0.04048004746437073,-0.2684466242790222,-0.05752427875995636,-0.08259996026754379,0.6033388376235962,11.817779541015625
1689018019353337039,-0.047936901450157166,-0.25779399275779724,-0.058589544147253036,0.507570743560791,0.39624038338661194,12.033257484436035
1689018019362337039,-0.0649811327457428,-0.25779399275779724,-0.1022653877735138,0.9684545993804932,-0.008379706181585789,12.251130104064941
1689018019372337039,-0.09161274135112762,-0.258859246969223,-0.16405072808265686,1.0809820890426636,-0.3579331338405609,12.324152946472168
1689018019381337039,-0.12357067316770554,-0.25246766209602356,-0.2322276532649994,0.9385270476341248,-0.6643909811973572,12.190077781677246
1689018019391337039,-0.15446333587169647,-0.23329290747642517,-0.29401299357414246,0.6751648783683777,-0.9097966551780701,11.924321174621582
1689018019401337039,-0.1810949593782425,-0.20559602975845337,-0.34088462591171265,0.3519476354122162,-0.9253589510917664,11.4634370803833
1689018019410337039,-0.19174760580062866,-0.16618125140666962,-0.36005938053131104,0.061052143573760986,-0.5781996846199036,10.880449295043945
1689018019420337039,-0.17896442115306854,-0.11824434995651245,-0.34621095657348633,-0.11971008032560349,0.0035913025494664907,10.345345497131348
1689018019430337039,-0.1438107043504715,-0.0649811327457428,-0.3025350868701935,-0.1975216418504715,0.6009446382522583,9.877279281616211
1689018019440337039,-0.09054747968912125,-0.009587380103766918,-0.24501082301139832,-0.09696516394615173,1.058237075805664,9.585186004638672
1689018019449337039,-0.030892668291926384,0.041545312851667404,-0.185356006026268,0.08259996026754379,1.194706678390503,9.5408935546875
1689018019459337039,0.019174760207533836,0.08628641813993454,-0.13741911947727203,0.3124433159828186,0.8702923059463501,9.677363395690918
1689018019469337039,0.049002163112163544,0.11930961906909943,-0.11717908829450607,0.6703764796257019,0.26575639843940735,9.837774276733398
1689018019479337039,0.05645901337265968,0.13741911947727203,-0.12144014239311218,1.0330979824066162,-0.2190694510936737,9.93833065032959
1689018019488337039,0.049002163112163544,0.14274543523788452,-0.14913702011108398,1.2976572513580322,-0.49320554733276367,9.898826599121094
1689018019498337039,0.03302319720387459,0.14061491191387177,-0.1992044448852539,1.4209586381912231,-0.6859387755393982,9.714472770690918
1689018019508337039,0.01065264455974102,0.1342233121395111,-0.2599245309829712,1.4748282432556152,-0.8463503122329712,9.469067573547363
1689018019517337039,-0.015978965908288956,0.12250541150569916,-0.3163835406303406,1.5753847360610962,-0.9516951441764832,9.218873023986816
1689018019527337039,-0.04687163606286049,0.1065264418721199,-0.3579288423061371,1.6579846143722534,-1.015141487121582,8.968679428100586
1689018019537337039,-0.0788295716047287,0.08522115647792816,-0.3802993893623352,1.6567875146865845,-1.0283095836639404,8.74721622467041
1689018019547337039,-0.10972223430871964,0.06072007119655609,-0.3898867964744568,1.6603788137435913,-0.9385270476341248,8.591592788696289
1689018019556337039,-0.13209278881549835,0.029827404767274857,-0.3941478431224823,1.580173134803772,-0.6787561774253845,8.413224220275879
1689018019566337039,-0.14700649678707123,0.009587380103766918,-0.38669100403785706,1.3766659498214722,-0.3495534360408783,8.198943138122559
1689018019576337039,-0.14700649678707123,-0.017044231295585632,-0.370712012052536,1.0821791887283325,-0.02513911761343479,8.02536392211914
1689018019586337039,-0.1395496428012848,-0.02876213937997818,-0.35047200322151184,0.7098807692527771,0.295683890581131,7.85657262802124
1689018019595337039,-0.12144014239311218,-0.03621898964047432,-0.3281014561653137,0.424970805644989,0.568622887134552,7.702146530151367
1689018019605337039,-0.09480853378772736,-0.03195793181657791,-0.3014698326587677,0.2861070930957794,0.8415618538856506,7.593210697174072
1689018019614337039,-0.058589544147253036,-0.029827404767274857,-0.27483823895454407,0.25977087020874023,1.0989385843276978,7.50582218170166
1689018019625337039,-0.014913702383637428,-0.027696875855326653,-0.24501082301139832,0.325611412525177,1.3084311485290527,7.46033239364624
1689018019634337039,0.03515372797846794,-0.027696875855326653,-0.2087918221950531,0.3974374830722809,1.456871747970581,7.438784599304199
1689018019643337039,0.08735168725252151,-0.027696875855326653,-0.17470337450504303,0.4213795065879822,1.5969325304031372,7.418433666229248
1689018019653337039,0.1438107043504715,-0.027696875855326653,-0.14594122767448425,0.47644612193107605,1.7262194156646729,7.46033239364624
1689018019663337039,0.20133498311042786,-0.029827404767274857,-0.12144014239311218,0.5590460896492004,1.8471266031265259,7.540538311004639
1689018019673337039,0.2631203234195709,-0.03195793181657791,-0.09480853378772736,0.6009446382522583,1.968033790588379,7.614758491516113
1689018019682337039,0.32277512550354004,-0.03195793181657791,-0.07030745595693588,0.5542576909065247,1.9584569931030273,7.704540729522705
1689018019692337039,0.3792341351509094,-0.03195793181657791,-0.05326322093605995,0.4824316203594208,1.824381709098816,7.884106159210205
1689018019702337039,0.42397525906562805,-0.029827404767274857,-0.04261057823896408,0.3711012601852417,1.622071623802185,8.165424346923828
1689018019711337039,0.4548678994178772,-0.029827404767274857,-0.04261057823896408,0.1999158412218094,1.3658920526504517,8.51258373260498
1689018019721337039,0.47084689140319824,-0.029827404767274857,-0.055393751710653305,-0.010773907415568829,1.0642226934432983,8.938752174377441
1689018019731337039,0.46658581495285034,-0.02556634694337845,-0.07563377171754837,-0.2693476974964142,0.6883329749107361,9.41759204864502
1689018019741337039,0.445280522108078,-0.017044231295585632,-0.09054747968912125,-0.36750996112823486,0.40462008118629456,9.757569313049316
1689018019750337039,0.4122573435306549,-0.006391586735844612,-0.09693906456232071,-0.2669534981250763,0.208295539021492,9.939528465270996
1689018019760337039,0.36858150362968445,0.006391586735844612,-0.0788295716047287,-0.10055647045373917,-0.0694318488240242,10.067618370056152
1689018019770337039,0.31744879484176636,0.015978965908288956,-0.03515372797846794,0.05267243832349777,-0.26815059781074524,10.146626472473145
1689018019779337039,0.2652508318424225,0.027696875855326653,0.029827404767274857,0.10295066982507706,-0.29209259152412415,10.230423927307129
1689018019789337039,0.21411815285682678,0.04367584362626076,0.10439591109752655,0.08499415963888168,-0.18076223134994507,10.342950820922852
1689018019799337039,0.17044231295585632,0.06072007119655609,0.17789916694164276,0.08738835901021957,0.07900865375995636,10.307038307189941
1689018019809337039,0.13528858125209808,0.08948221057653427,0.24288028478622437,0.10295066982507706,0.4118026793003082,10.369287490844727
1689018019819337039,0.11398329585790634,0.11930961906909943,0.2918824553489685,0.16879121959209442,0.667982280254364,10.548852920532227
1689018019828337039,0.09906959533691406,0.15020228922367096,0.32170987129211426,0.3280056416988373,0.7457938194274902,10.625467300415039
1689018019838337039,0.08735168725252151,0.17789916694164276,0.33236250281333923,0.529118537902832,0.667982280254364,10.837353706359863
1689018019848337039,0.07456851005554199,0.20026971399784088,0.32170987129211426,0.7170634269714355,0.5518634915351868,11.082759857177734
1689018019857337039,0.06391586363315582,0.21518342196941376,0.2972087860107422,0.7829039692878723,0.5722141861915588,11.244368553161621
1689018019867337039,0.05752427875995636,0.23009711503982544,0.2695119082927704,0.8355763554573059,0.7398083209991455,11.398794174194336
1689018019876337039,0.052197955548763275,0.2364886999130249,0.2322276532649994,1.1121066808700562,0.7529764175415039,11.598710060119629
1689018019887337039,0.04048004746437073,0.22370553016662598,0.17789916694164276,1.5969325304031372,0.38307225704193115,11.918335914611816
1689018019896337039,0.007456851191818714,0.19707392156124115,0.11398329585790634,1.9500772953033447,-0.41778817772865295,12.40196418762207
1689018019905337039,-0.05645901337265968,0.16085493564605713,0.05432848632335663,1.987187385559082,-1.482010841369629,12.905943870544434
1689018019916337039,-0.14700649678707123,0.12144014239311218,0.017044231295585632,1.7501614093780518,-2.4205379486083984,13.233949661254883
1689018019925337039,-0.25246766209602356,0.092678003013134,-0.004261057823896408,1.2330138683319092,-2.8586766719818115,13.291410446166992
1689018019935337039,-0.3515372574329376,0.0788295716047287,-0.015978965908288956,0.6189011335372925,-2.691082715988159,13.12261962890625
1689018019945337039,-0.42823630571365356,0.07776430249214172,-0.02130528911948204,0.013168109580874443,-2.1356279850006104,12.805387496948242
1689018019954337039,-0.48043426871299744,0.09374327212572098,-0.012783173471689224,-0.46088382601737976,-1.4688427448272705,12.284648895263672
1689018019964337039,-0.5070658922195435,0.1161138266324997,0.007456851191818714,-0.6655880808830261,-0.9229647517204285,11.980585098266602
1689018019973337039,-0.5081311464309692,0.13741911947727203,0.030892668291926384,-0.7062894701957703,-0.48602294921875,11.647790908813477
1689018019983337039,-0.4964132308959961,0.16298545897006989,0.05326322093605995,-0.6631938815116882,-0.1364694982767105,11.305419921875
1689018019993337039,-0.474042683839798,0.18642127513885498,0.06924218684434891,-0.5243301391601562,0.04429272934794426,11.192893028259277
1689018020003337039,-0.4506068527698517,0.21092236042022705,0.07669904083013535,-0.456095427274704,0.0694318488240242,10.931924819946289
1689018020013337039,-0.42397525906562805,0.22796659171581268,0.07776430249214172,-0.5434837937355042,-0.016759412363171577,10.72841739654541
1689018020022337039,-0.399474173784256,0.24501082301139832,0.07563377171754837,-0.6883329749107361,-0.16400282084941864,10.573991775512695
1689018020032337039,-0.3813646733760834,0.2641855776309967,0.06817692518234253,-0.8834604024887085,-0.33039984107017517,10.363302230834961
1689018020042337039,-0.36432042717933655,0.28442561626434326,0.06072007119655609,-1.1109095811843872,-0.386663556098938,10.086771965026855
1689018020051337039,-0.34940674901008606,0.30892667174339294,0.058589544147253036,-1.278503656387329,-0.4429273009300232,9.827000617980957
1689018020061337039,-0.33555829524993896,0.33236250281333923,0.06604639440774918,-1.2725181579589844,-0.4489127993583679,9.581595420837402
1689018020071337039,-0.3185140788555145,0.3526025414466858,0.07350324839353561,-1.1563993692398071,-0.3627215623855591,9.295488357543945
1689018020081337039,-0.3004045784473419,0.36964675784111023,0.07563377171754837,-1.0043675899505615,-0.30526071786880493,9.062053680419922
1689018020090337039,-0.28016453981399536,0.37816888093948364,0.07776430249214172,-0.812831461429596,-0.25498247146606445,8.888473510742188
1689018020100337039,-0.260989785194397,0.3792341351509094,0.08202536404132843,-0.6224924325942993,-0.3172317147254944,8.707711219787598
1689018020110337039,-0.2460760921239853,0.37816888093948364,0.08948221057653427,-0.39863458275794983,-0.4034229815006256,8.51138687133789
1689018020119337039,-0.23116238415241241,0.3675162196159363,0.10546118021011353,-0.16639702022075653,-0.42377370595932007,8.32104778289795
1689018020129337039,-0.2173139452934265,0.3515372574329376,0.12250541150569916,0.05386953800916672,-0.46567222476005554,8.14148235321045
1689018020139337039,-0.20559602975845337,0.3302319645881653,0.13209278881549835,0.25258827209472656,-0.5279214382171631,7.982268333435059
1689018020149337039,-0.1949433982372284,0.3025350868701935,0.13315805792808533,0.42856210470199585,-0.5327098965644836,7.858966827392578
1689018020158337039,-0.1810949593782425,0.2695119082927704,0.12783172726631165,0.5674257874488831,-0.4620809257030487,7.746439456939697
1689018020168337039,-0.16511598229408264,0.23329290747642517,0.11930961906909943,0.6416460275650024,-0.28730419278144836,7.636306285858154
1689018020178337039,-0.14274543523788452,0.1949433982372284,0.11185276508331299,0.6859387755393982,-0.033518824726343155,7.51779317855835
1689018020188337039,-0.11398329585790634,0.15659387409687042,0.10439591109752655,0.6727706789970398,0.1999158412218094,7.4088568687438965
1689018020197337039,-0.08202536404132843,0.11717908829450607,0.09693906456232071,0.608127236366272,0.363918662071228,7.353790283203125
1689018020207337039,-0.05006742849946022,0.08202536404132843,0.09161274135112762,0.50876784324646,0.447715699672699,7.362170219421387
1689018020216337039,-0.019174760207533836,0.05006742849946022,0.09161274135112762,0.36990416049957275,0.4129997789859772,7.443572998046875
1689018020226337039,0.004261057823896408,0.023435818031430244,0.09693906456232071,0.25019407272338867,0.264559268951416,7.613561153411865
1689018020236337039,0.019174760207533836,-0.003195793367922306,0.10013485699892044,0.19393032789230347,0.061052143573760986,7.838616371154785
1689018020246337039,0.02556634694337845,-0.03302319720387459,0.10120011866092682,0.22505494952201843,-0.13287819921970367,8.110358238220215
1689018020256337039,0.023435818031430244,-0.06817692518234253,0.10439591109752655,0.30286651849746704,-0.2968810200691223,8.373720169067383
1689018020265337039,0.01810949482023716,-0.10759171098470688,0.11291802674531937,0.2992752194404602,-0.3758896589279175,8.573636054992676
1689018020275337039,0.013848437927663326,-0.14594122767448425,0.1299622654914856,0.16400282084941864,-0.3663128614425659,8.711302757263184
1689018020285337039,0.011717909015715122,-0.17789916694164276,0.14913702011108398,-0.10055647045373917,-0.3016694188117981,8.80587387084961
1689018020295337039,0.011717909015715122,-0.1992044448852539,0.17044231295585632,-0.39624038338661194,-0.20949263870716095,8.89685344696045
1689018020304337039,0.015978965908288956,-0.2130528837442398,0.18855179846286774,-0.6392518281936646,-0.11133037507534027,9.024943351745605
1689018020313337039,0.023435818031430244,-0.21624867618083954,0.20559602975845337,-0.8810662031173706,0.015562310814857483,9.142258644104004
1689018020323337039,0.03195793181657791,-0.20985709130764008,0.23116238415241241,-1.1420341730117798,0.13527239859104156,9.230844497680664
1689018020333337039,0.04261057823896408,-0.19387812912464142,0.258859246969223,-1.3539210557937622,0.2537853717803955,9.336189270019531
1689018020342337039,0.058589544147253036,-0.1715075671672821,0.2822950780391693,-1.434126853942871,0.4082113802433014,9.465476036071777
1689018020352337039,0.07563377171754837,-0.1438107043504715,0.29401299357414246,-1.404199242591858,0.5614402890205383,9.640253067016602
1689018020362337039,0.09374327212572098,-0.11824434995651245,0.29401299357414246,-1.2940659523010254,0.7003039717674255,9.853337287902832
1689018020372337039,0.11291802674531937,-0.09800432622432709,0.2833603322505951,-1.0761936902999878,0.7422025203704834,10.103530883789062
1689018020381337039,0.12783172726631165,-0.08415588736534119,0.26205503940582275,-0.790086567401886,0.5937620401382446,10.402806282043457
1689018020391337039,0.13315805792808533,-0.07776430249214172,0.23435817658901215,-0.5183446407318115,0.3124433159828186,10.720037460327148
1689018020401337039,0.12783172726631165,-0.07776430249214172,0.20240023732185364,-0.2968810200691223,-0.002394201699644327,11.024101257324219
1689018020411337039,0.11398329585790634,-0.08096009492874146,0.16831177473068237,-0.1412578970193863,-0.23822306096553802,11.288661003112793
1689018020420337039,0.09587380290031433,-0.08522115647792816,0.14061491191387177,-0.10175357013940811,-0.2992752194404602,11.441889762878418
1689018020430337039,0.07989483326673508,-0.08628641813993454,0.1299622654914856,-0.11252747476100922,-0.19632454216480255,11.512518882751465
1689018020440337039,0.06604639440774918,-0.08522115647792816,0.12889699637889862,0.09696516394615173,-0.16639702022075653,11.593921661376953
1689018020450337039,0.04687163606286049,-0.092678003013134,0.11185276508331299,0.5853822827339172,-0.43933600187301636,11.777077674865723
1689018020459337039,0.014913702383637428,-0.11398329585790634,0.07137271761894226,1.0654197931289673,-0.9923965930938721,12.065579414367676
1689018020469337039,-0.034088462591171265,-0.1438107043504715,0.017044231295585632,1.2665326595306396,-1.599326729774475,12.307394027709961
1689018020479337039,-0.09693906456232071,-0.16937704384326935,-0.03941478580236435,1.1288660764694214,-2.0015525817871094,12.40076732635498
1689018020489337039,-0.16405072808265686,-0.1810949593782425,-0.09161274135112762,0.8044517636299133,-2.163161277770996,12.358868598937988
1689018020498337039,-0.23009711503982544,-0.17789916694164276,-0.13741911947727203,0.4668693244457245,-2.185906171798706,12.230779647827148
1689018020508337039,-0.2865561246871948,-0.15978966653347015,-0.16831177473068237,0.13168108463287354,-2.005143880844116,12.038045883178711
1689018020518337039,-0.32597091794013977,-0.13209278881549835,-0.16831177473068237,-0.14365209639072418,-1.6316484212875366,11.742362022399902
1689018020527337039,-0.3430151343345642,-0.09587380290031433,-0.15126754343509674,-0.2825157940387726,-1.1097124814987183,11.287464141845703
1689018020537337039,-0.33662354946136475,-0.049002163112163544,-0.11717908829450607,-0.3770867586135864,-0.3902548849582672,10.801441192626953
1689018020546337039,-0.30466562509536743,0.003195793367922306,-0.07030745595693588,-0.27653029561042786,0.1999158412218094,10.47942066192627
1689018020557337039,-0.258859246969223,0.05326322093605995,-0.020240023732185364,-0.181959331035614,0.5793967843055725,10.338162422180176
1689018020566337039,-0.2034655064344406,0.10439591109752655,0.007456851191818714,-0.0802057534456253,0.9504980444908142,10.369287490844727
1689018020575337039,-0.14168016612529755,0.14913702011108398,0.012783173471689224,0.30526071786880493,1.1073182821273804,10.529699325561523
1689018020585337039,-0.0884169489145279,0.18216021358966827,-0.007456851191818714,0.7254431247711182,0.9205705523490906,10.712855339050293
1689018020596337039,-0.047936901450157166,0.20666129887104034,-0.05752427875995636,1.1971008777618408,0.4836287498474121,10.862492561340332
1689018020605337039,-0.02556634694337845,0.21411815285682678,-0.1438107043504715,1.821987509727478,-0.1388636976480484,10.96664047241211
1689018020614337039,-0.02130528911948204,0.1992044448852539,-0.2556634545326233,2.4013843536376953,-0.8140285611152649,11.022904396057129
1689018020623607095,-0.027696875855326653,0.16618125140666962,-0.3802993893623352,2.7126305103302,-1.2653355598449707,10.985794067382812
1689018020633607095,-0.03941478580236435,0.1257012039422989,-0.5038700699806213,2.7748796939849854,-1.4269441366195679,10.812214851379395
1689018020642607095,-0.0511326938867569,0.08522115647792816,-0.6135923266410828,2.6180593967437744,-1.4460978507995605,10.517727851867676
1689018020652607095,-0.06604639440774918,0.055393751710653305,-0.6966829299926758,2.29484224319458,-1.4197615385055542,10.164583206176758
1689018020662607095,-0.08096009492874146,0.03302319720387459,-0.7456851005554199,1.787271499633789,-1.4077905416488647,9.744400978088379
1689018020672607095,-0.10120011866092682,0.03302319720387459,-0.7563377618789673,1.1994950771331787,-1.437718152999878,9.32780933380127
1689018020681607095,-0.12250541150569916,0.03834952041506767,-0.7297061681747437,0.8032546639442444,-1.4532804489135742,8.917203903198242
1689018020691607095,-0.1438107043504715,0.049002163112163544,-0.6775081753730774,0.6619967818260193,-1.3455413579940796,8.486248016357422
1689018020701607095,-0.15659387409687042,0.05432848632335663,-0.6146575808525085,0.6763619780540466,-1.0402805805206299,8.111555099487305
1689018020711607095,-0.15659387409687042,0.055393751710653305,-0.5518069863319397,0.7134720683097839,-0.6057330369949341,7.7631988525390625
1689018020720607095,-0.14061491191387177,0.052197955548763275,-0.49428269267082214,0.7457938194274902,-0.1173158809542656,7.46033239364624
1689018020730607095,-0.10865697264671326,0.044741105288267136,-0.4442152678966522,0.7829039692878723,0.34356793761253357,7.219715118408203
1689018020740607095,-0.06711165606975555,0.03621898964047432,-0.4037352204322815,0.7481880187988281,0.6631938815116882,7.0317702293396
1689018020749607095,-0.019174760207533836,0.029827404767274857,-0.37390780448913574,0.6153098344802856,0.8583213090896606,6.89649772644043
1689018020759607095,0.03195793181657791,0.024501081556081772,-0.3579288423061371,0.4824316203594208,1.0115501880645752,6.821080684661865
1689018020769607095,0.08415588736534119,0.020240023732185364,-0.3515372574329376,0.46088382601737976,1.1420341730117798,6.782773494720459
1689018020779607095,0.1342233121395111,0.011717909015715122,-0.35473304986953735,0.5793967843055725,1.2653355598449707,6.800729751586914
1689018020788607095,0.185356006026268,-0.004261057823896408,-0.36432042717933655,0.6931213736534119,1.3551181554794312,6.894103527069092
1689018020798607095,0.23329290747642517,-0.022370552644133568,-0.3760383427143097,0.6703764796257019,1.359906554222107,7.007828235626221
1689018020808607095,0.28016453981399536,-0.037284255027770996,-0.39201730489730835,0.5051765441894531,1.3491326570510864,7.1227498054504395
1689018020818607095,0.32277512550354004,-0.04367584362626076,-0.4037352204322815,0.29209259152412415,1.301248550415039,7.269993305206299
1689018020827607095,0.36005938053131104,-0.04367584362626076,-0.4133225977420807,0.10175357013940811,1.191115379333496,7.449558258056641
1689018020837607095,0.39095205068588257,-0.037284255027770996,-0.4165183901786804,-0.06823474913835526,1.0546457767486572,7.661445140838623
1689018020847607095,0.4133225977420807,-0.026631610468029976,-0.41438785195350647,-0.1999158412218094,0.8547300100326538,7.926004409790039
1689018020857607095,0.4229099750518799,-0.013848437927663326,-0.40160468220710754,-0.2932896912097931,0.6033388376235962,8.234856605529785
1689018020866607095,0.41971418261528015,-0.003195793367922306,-0.3792341351509094,-0.33758243918418884,0.30885201692581177,8.561665534973145
1689018020876607095,0.4069310128688812,0.002130528911948204,-0.35047200322151184,-0.36152446269989014,-0.026336219161748886,8.858546257019043
1689018020885607095,0.3792341351509094,0.008522115647792816,-0.3185140788555145,-0.3471592366695404,-0.3148375153541565,9.260771751403809
1689018020895607095,0.3440804183483124,0.013848437927663326,-0.2865561246871948,-0.42616790533065796,-0.47165772318840027,9.587580680847168
1689018020905607095,0.30466562509536743,0.02556634694337845,-0.24714134633541107,-0.6141127347946167,-0.5123591423034668,9.720458984375
1689018020915607095,0.2641855776309967,0.04261057823896408,-0.20026971399784088,-0.6715735793113708,-0.4944026470184326,9.917980194091797
1689018020924607095,0.22583605349063873,0.058589544147253036,-0.15020228922367096,-0.608127236366272,-0.3734954595565796,10.162188529968262
1689018020934607095,0.19174760580062866,0.07030745595693588,-0.09906959533691406,-0.5315127968788147,-0.2322375625371933,10.438718795776367
1689018020943607095,0.15978966653347015,0.0788295716047287,-0.055393751710653305,-0.3926490843296051,-0.18315643072128296,10.781089782714844
1689018020953607095,0.12889699637889862,0.07669904083013535,-0.029827404767274857,-0.18076223134994507,-0.2298433631658554,11.185709953308105
1689018020963607095,0.09906959533691406,0.06178533658385277,-0.024501081556081772,0.05985504016280174,-0.3794809579849243,11.615468978881836
1689018020972607095,0.06711165606975555,0.037284255027770996,-0.03834952041506767,0.23104046285152435,-0.46327802538871765,11.959036827087402
1689018020982607095,0.03941478580236435,0.009587380103766918,-0.05965480953454971,0.26815059781074524,-0.3387795388698578,12.148179054260254
1689018020992607095,0.022370552644133568,-0.015978965908288956,-0.07776430249214172,0.24420857429504395,-0.05027823522686958,12.24275016784668
1689018021002607095,0.017044231295585632,-0.041545312851667404,-0.092678003013134,0.19273322820663452,0.20350714027881622,12.351686477661133
1689018021012607095,0.01810949482023716,-0.06817692518234253,-0.1065264418721199,0.17836801707744598,0.15682020783424377,12.527660369873047
1689018021021607095,0.012783173471689224,-0.09480853378772736,-0.12676647305488586,0.14365209639072418,-0.2537853717803955,12.787430763244629
1689018021031607095,-0.004261057823896408,-0.11930961906909943,-0.14487595856189728,-0.18315643072128296,-0.6979097723960876,13.002909660339355
1689018021040607095,-0.029827404767274857,-0.13635385036468506,-0.16511598229408264,-0.6619967818260193,-1.0666168928146362,13.147758483886719
1689018021050607095,-0.05752427875995636,-0.14594122767448425,-0.17896442115306854,-1.0761936902999878,-1.3658920526504517,13.138181686401367
1689018021060607095,-0.08415588736534119,-0.14594122767448425,-0.1896170675754547,-1.4293383359909058,-1.4449007511138916,12.928689002990723
1689018021070607095,-0.10333064943552017,-0.1395496428012848,-0.19174760580062866,-1.6065093278884888,-1.3096283674240112,12.58152961730957
1689018021080607095,-0.10546118021011353,-0.12889699637889862,-0.1768338978290558,-1.6508020162582397,-0.9684545993804932,12.064382553100586
1689018021089607095,-0.08522115647792816,-0.1161138266324997,-0.13848437368869781,-1.6280571222305298,-0.5039794445037842,11.45266342163086
1689018021099607095,-0.044741105288267136,-0.09906959533691406,-0.07989483326673508,-1.578976035118103,-0.05147533491253853,10.837353706359863
1689018021108607095,0.009587380103766918,-0.07989483326673508,-0.006391586735844612,-1.4951789379119873,0.2693476974964142,10.356119155883789
