t,gx,gy,gz,ax,ay,az
1689018012792591043,-0.019174760207533836,0.14594122767448425,0.1757686287164688,-0.0035913025494664907,-0.4489127993583679,10.24000072479248
1689018012801591043,-0.022370552644133568,0.15233281254768372,0.19387812912464142,-0.05746084079146385,-0.4572925269603729,10.193313598632812
1689018012811591043,-0.023435818031430244,0.15659387409687042,0.20666129887104034,-0.15682020783424377,-0.4800374209880829,10.157400131225586
1689018012821591043,-0.024501081556081772,0.16085493564605713,0.20985709130764008,-0.30047231912612915,-0.47405192255973816,10.129867553710938
1689018012830591043,-0.020240023732185364,0.16511598229408264,0.20133498311042786,-0.4572925269603729,-0.4429273009300232,10.114304542541504
1689018012840591043,-0.014913702383637428,0.1672465205192566,0.18429075181484222,-0.5817909836769104,-0.4118026793003082,10.078392028808594
1689018012849591043,-0.011717909015715122,0.16511598229408264,0.1619201898574829,-0.7003039717674255,-0.38546645641326904,10.053253173828125
1689018012859591043,-0.009587380103766918,0.15978966653347015,0.13315805792808533,-0.8056488633155823,-0.38067805767059326,10.054450035095215
1689018012869591043,-0.006391586735844612,0.15020228922367096,0.1022653877735138,-0.8786720037460327,-0.3998316824436188,10.077195167541504
1689018012878591043,-0.003195793367922306,0.13848437368869781,0.07669904083013535,-0.912190854549408,-0.41778817772865295,10.074800491333008
1689018012888591043,0.0,0.1299622654914856,0.055393751710653305,-0.9085995554924011,-0.37828385829925537,10.064026832580566
1689018012897591043,0.003195793367922306,0.11930961906909943,0.03302319720387459,-0.8750807046890259,-0.32680851221084595,10.091560363769531
1689018012907591043,0.00532632227987051,0.10333064943552017,0.019174760207533836,-0.8367734551429749,-0.30526071786880493,10.135852813720703
1689018012916591043,0.006391586735844612,0.08202536404132843,0.014913702383637428,-0.8008604645729065,-0.27413609623908997,10.153809547424316
1689018012926591043,0.00532632227987051,0.05752427875995636,0.015978965908288956,-0.7781155109405518,-0.2513911724090576,10.135852813720703
1689018012936591043,0.008522115647792816,0.034088462591171265,0.01065264455974102,-0.7793126106262207,-0.24899697303771973,10.109516143798828
1689018012945591043,0.019174760207533836,0.011717909015715122,0.007456851191818714,-0.7338228225708008,-0.28371289372444153,10.066420555114746
1689018012955591043,0.030892668291926384,-0.01065264455974102,0.012783173471689224,-0.6643909811973572,-0.33997663855552673,10.011354446411133
1689018012964591043,0.044741105288267136,-0.03195793181657791,0.013848437927663326,-0.6607996821403503,-0.3447650372982025,9.989806175231934
1689018012974591043,0.05645901337265968,-0.052197955548763275,0.011717909015715122,-0.6811503767967224,-0.3232172131538391,10.011354446411133
1689018012984591043,0.06711165606975555,-0.07030745595693588,0.00532632227987051,-0.6835445761680603,-0.31124621629714966,10.019734382629395
1689018012994591043,0.07456851005554199,-0.08628641813993454,-0.003195793367922306,-0.6751648783683777,-0.2885012924671173,10.014945983886719
1689018013003591043,0.0788295716047287,-0.09693906456232071,-0.009587380103766918,-0.6488286256790161,-0.26815059781074524,9.998186111450195
1689018013013591043,0.07989483326673508,-0.10546118021011353,-0.013848437927663326,-0.6356605291366577,-0.2801215946674347,9.97184944152832
1689018013022591043,0.07989483326673508,-0.11291802674531937,-0.01810949482023716,-0.6452373266220093,-0.2932896912097931,9.97184944152832
1689018013032591043,0.0788295716047287,-0.11930961906909943,-0.01810949482023716,-0.6476315259933472,-0.31124621629714966,9.956287384033203
1689018013042591043,0.07989483326673508,-0.12250541150569916,-0.01810949482023716,-0.6416460275650024,-0.3363853394985199,9.920374870300293
1689018013051591043,0.08096009492874146,-0.12676647305488586,-0.02130528911948204,-0.6440402269363403,-0.33518823981285095,9.907206535339355
1689018013060591043,0.07989483326673508,-0.13209278881549835,-0.026631610468029976,-0.6835445761680603,-0.31603461503982544,9.898826599121094
1689018013070591043,0.07669904083013535,-0.13635385036468506,-0.034088462591171265,-0.7242460250854492,-0.28969839215278625,9.897629737854004
1689018013080591043,0.07137271761894226,-0.1395496428012848,-0.04048004746437073,-0.7266402244567871,-0.26336216926574707,9.882067680358887
1689018013090591043,0.06391586363315582,-0.14168016612529755,-0.04261057823896408,-0.7134720683097839,-0.24779987335205078,9.849745750427246
1689018013099591043,0.055393751710653305,-0.1395496428012848,-0.044741105288267136,-0.7170634269714355,-0.23702596127986908,9.830592155456543
1689018013108591043,0.049002163112163544,-0.13741911947727203,-0.04367584362626076,-0.7194576263427734,-0.22026655077934265,9.81383228302002
1689018013118591043,0.04261057823896408,-0.13209278881549835,-0.041545312851667404,-0.7146691679954529,-0.20231004059314728,9.797073364257812
1689018013128591043,0.03834952041506767,-0.12676647305488586,-0.041545312851667404,-0.7242460250854492,-0.17717091739177704,9.800664901733398
1689018013138591043,0.03515372797846794,-0.12144014239311218,-0.04261057823896408,-0.7338228225708008,-0.14604629576206207,9.815030097961426
1689018013147591043,0.030892668291926384,-0.1161138266324997,-0.044741105288267136,-0.7433996200561523,-0.13168108463287354,9.828197479248047
1689018013157591043,0.029827404767274857,-0.10759171098470688,-0.04687163606286049,-0.7493851184844971,-0.13766659796237946,9.840168952941895
1689018013166591043,0.030892668291926384,-0.09800432622432709,-0.044741105288267136,-0.7182605266571045,-0.14844051003456116,9.84376049041748
1689018013176591043,0.030892668291926384,-0.08309062570333481,-0.04261057823896408,-0.7003039717674255,-0.1364694982767105,9.850942611694336
1689018013185591043,0.029827404767274857,-0.06924218684434891,-0.037284255027770996,-0.7182605266571045,-0.10654197633266449,9.890446662902832
1689018013195591043,0.02876213937997818,-0.05752427875995636,-0.03302319720387459,-0.7565677165985107,-0.0802057534456253,9.959878921508789
1689018013204591043,0.024501081556081772,-0.047936901450157166,-0.03302319720387459,-0.790086567401886,-0.07062894850969315,10.032901763916016
1689018013214591043,0.020240023732185364,-0.04261057823896408,-0.034088462591171265,-0.7996633648872375,-0.08499415963888168,10.098742485046387
1689018013224591043,0.014913702383637428,-0.03834952041506767,-0.04048004746437073,-0.7912836670875549,-0.11013327538967133,10.14902114868164
1689018013233591043,0.01065264455974102,-0.03621898964047432,-0.05006742849946022,-0.7685387134552002,-0.15083470940589905,10.18493366241455
1689018013243591043,0.007456851191818714,-0.03621898964047432,-0.06285060197114944,-0.7362170219421387,-0.20470423996448517,10.20648193359375
1689018013252591043,0.004261057823896408,-0.03621898964047432,-0.07563377171754837,-0.7134720683097839,-0.24899697303771973,10.229227066040039
1689018013263591043,0.002130528911948204,-0.037284255027770996,-0.08522115647792816,-0.6979097723960876,-0.28969839215278625,10.23880386352539
1689018013271591043,0.001065264455974102,-0.037284255027770996,-0.08735168725252151,-0.6596025824546814,-0.32441431283950806,10.24000072479248
1689018013281591043,-0.001065264455974102,-0.03621898964047432,-0.08522115647792816,-0.6129156351089478,-0.3579331338405609,10.251971244812012
1689018013291591043,-0.003195793367922306,-0.03515372797846794,-0.08096009492874146,-0.5662286877632141,-0.3998316824436188,10.261548042297363
1689018013300591043,-0.004261057823896408,-0.03195793181657791,-0.07563377171754837,-0.5339069962501526,-0.42018237709999084,10.255562782287598
1689018013311591043,-0.004261057823896408,-0.027696875855326653,-0.07137271761894226,-0.5123591423034668,-0.43933600187301636,10.250774383544922
1689018013319591043,-0.00532632227987051,-0.024501081556081772,-0.06604639440774918,-0.4836287498474121,-0.4728548228740692,10.257957458496094
1689018013329591043,-0.004261057823896408,-0.022370552644133568,-0.06178533658385277,-0.4429273009300232,-0.5111620426177979,10.250774383544922
1689018013339591043,-0.001065264455974102,-0.020240023732185364,-0.05752427875995636,-0.40222588181495667,-0.5410895943641663,10.234015464782715
1689018013349591043,0.00532632227987051,-0.017044231295585632,-0.05432848632335663,-0.38546645641326904,-0.5566518902778625,10.220847129821777
1689018013358591043,0.012783173471689224,-0.014913702383637428,-0.049002163112163544,-0.3603273630142212,-0.569819986820221,10.20648193359375
1689018013368591043,0.023435818031430244,-0.01065264455974102,-0.044741105288267136,-0.3196259140968323,-0.5997475385665894,10.187328338623047
1689018013377591043,0.03515372797846794,-0.008522115647792816,-0.04048004746437073,-0.2777273952960968,-0.6260837316513062,10.156203269958496
1689018013387591043,0.04580637067556381,-0.008522115647792816,-0.03941478580236435,-0.23343466222286224,-0.6380547285079956,10.126276016235352
1689018013396591043,0.055393751710653305,-0.007456851191818714,-0.03621898964047432,-0.1975216418504715,-0.6392518281936646,10.089165687561035
1689018013406591043,0.06604639440774918,-0.00532632227987051,-0.03302319720387459,-0.1604115068912506,-0.6404489278793335,10.064026832580566
1689018013415591043,0.07669904083013535,-0.004261057823896408,-0.027696875855326653,-0.14006079733371735,-0.6368576288223267,10.046070098876953
1689018013425591043,0.08522115647792816,-0.003195793367922306,-0.022370552644133568,-0.13407529890537262,-0.6033388376235962,10.005369186401367
1689018013435591043,0.092678003013134,-0.002130528911948204,-0.017044231295585632,-0.12090718746185303,-0.5566518902778625,9.97065258026123
1689018013445591043,0.09693906456232071,-0.002130528911948204,-0.011717909015715122,-0.11372458189725876,-0.5039794445037842,9.950302124023438
1689018013454591043,0.10013485699892044,-0.006391586735844612,-0.01065264455974102,-0.12330138683319092,-0.4513069987297058,9.927556991577148
1689018013464591043,0.10013485699892044,-0.011717909015715122,-0.01065264455974102,-0.1412578970193863,-0.395043283700943,9.909600257873535
1689018013473591043,0.09906959533691406,-0.01810949482023716,-0.011717909015715122,-0.14604629576206207,-0.33039984107017517,9.896432876586914
1689018013483591043,0.09587380290031433,-0.026631610468029976,-0.009587380103766918,-0.14365209639072418,-0.2537853717803955,9.882067680358887
1689018013493591043,0.09054747968912125,-0.03515372797846794,-0.006391586735844612,-0.152031809091568,-0.1759738177061081,9.862914085388184
1689018013502591043,0.08309062570333481,-0.04261057823896408,-0.003195793367922306,-0.1711854189634323,-0.10295066982507706,9.849745750427246
1689018013512591043,0.07563377171754837,-0.05326322093605995,-0.004261057823896408,-0.17836801707744598,-0.03232172131538391,9.861716270446777
1689018013521591043,0.06711165606975555,-0.06604639440774918,-0.008522115647792816,-0.16759411990642548,0.033518824726343155,9.888052940368652
1689018013531591043,0.05645901337265968,-0.07989483326673508,-0.01810949482023716,-0.17238251864910126,0.08858545869588852,9.910798072814941
1689018013541591043,0.044741105288267136,-0.09587380290031433,-0.03195793181657791,-0.18315643072128296,0.12090718746185303,9.931148529052734
1689018013550591043,0.03515372797846794,-0.11078750342130661,-0.04580637067556381,-0.1604115068912506,0.11851298063993454,9.933542251586914
1689018013559591043,0.027696875855326653,-0.12463594228029251,-0.06178533658385277,-0.11971008032560349,0.10055647045373917,9.897629737854004
1689018013569591043,0.022370552644133568,-0.13528858125209808,-0.07563377171754837,-0.07422025501728058,0.09217676520347595,9.852139472961426
1689018013579591043,0.019174760207533836,-0.1438107043504715,-0.08522115647792816,-0.043095629662275314,0.0933738648891449,9.830592155456543
1689018013588591043,0.017044231295585632,-0.148071750998497,-0.092678003013134,-0.03232172131538391,0.09816227108240128,9.821015357971191
1689018013598591043,0.01810949482023716,-0.15126754343509674,-0.09374327212572098,-0.02513911761343479,0.10534487664699554,9.803058624267578
1689018013607591043,0.019174760207533836,-0.14700649678707123,-0.092678003013134,-0.023942016065120697,0.10295066982507706,9.791088104248047
1689018013617591043,0.019174760207533836,-0.14274543523788452,-0.09054747968912125,-0.031124621629714966,0.11133037507534027,9.795876502990723
1689018013626591043,0.019174760207533836,-0.13528858125209808,-0.08522115647792816,-0.04668693244457245,0.12928688526153564,9.807847023010254
1689018013636591043,0.019174760207533836,-0.1257012039422989,-0.0788295716047287,-0.07182604819536209,0.12928688526153564,9.822212219238281
1689018013646591043,0.019174760207533836,-0.1161138266324997,-0.07137271761894226,-0.09457096457481384,0.12090718746185303,9.850942611694336
1689018013656591043,0.020240023732185364,-0.1065264418721199,-0.06711165606975555,-0.12449848651885986,0.11372458189725876,9.886856079101562
1689018013665591043,0.02130528911948204,-0.09693906456232071,-0.06817692518234253,-0.15801730751991272,0.11372458189725876,9.920374870300293
1689018013675591043,0.022370552644133568,-0.08735168725252151,-0.07137271761894226,-0.17717091739177704,0.11851298063993454,9.956287384033203
1689018013684591043,0.023435818031430244,-0.07669904083013535,-0.0788295716047287,-0.18794482946395874,0.12449848651885986,9.987412452697754
1689018013694591043,0.024501081556081772,-0.06604639440774918,-0.09054747968912125,-0.20350714027881622,0.13766659796237946,10.001777648925781
1689018013704591043,0.024501081556081772,-0.05326322093605995,-0.1022653877735138,-0.2214636504650116,0.14724339544773102,9.996989250183105
1689018013714591043,0.024501081556081772,-0.037284255027770996,-0.11291802674531937,-0.22625206410884857,0.14724339544773102,9.977835655212402
1689018013722591043,0.024501081556081772,-0.022370552644133568,-0.12144014239311218,-0.21667525172233582,0.1412578970193863,9.953893661499023
1689018013732591043,0.023435818031430244,-0.006391586735844612,-0.12250541150569916,-0.18555063009262085,0.1412578970193863,9.9371337890625
1689018013742591043,0.022370552644133568,0.009587380103766918,-0.1203748807311058,-0.1388636976480484,0.1388636976480484,9.932345390319824
1689018013752591043,0.02130528911948204,0.024501081556081772,-0.11717908829450607,-0.11013327538967133,0.1304839849472046,9.933542251586914
1689018013761591043,0.02130528911948204,0.04048004746437073,-0.1161138266324997,-0.10175357013940811,0.12689268589019775,9.946710586547852
1689018013771591043,0.020240023732185364,0.05645901337265968,-0.11717908829450607,-0.10175357013940811,0.12928688526153564,9.965864181518555
1689018013780591043,0.01810949482023716,0.06924218684434891,-0.11717908829450607,-0.09816227108240128,0.14006079733371735,9.987412452697754
1689018013790591043,0.014913702383637428,0.0788295716047287,-0.11717908829450607,-0.07302314788103104,0.15322890877723694,10.004171371459961
1689018013799591043,0.008522115647792816,0.08522115647792816,-0.11717908829450607,-0.03232172131538391,0.15682020783424377,10.014945983886719
1689018013809591043,0.003195793367922306,0.08948221057653427,-0.11398329585790634,-0.0011971008498221636,0.15322890877723694,10.020931243896484
1689018013819591043,-0.003195793367922306,0.092678003013134,-0.1065264418721199,0.031124621629714966,0.15562310814857483,10.019734382629395
1689018013828591043,-0.01065264455974102,0.09374327212572098,-0.09693906456232071,0.0802057534456253,0.16998831927776337,10.017339706420898
1689018013838591043,-0.019174760207533836,0.09374327212572098,-0.08415588736534119,0.12689268589019775,0.17956513166427612,10.010157585144043
1689018013848591043,-0.026631610468029976,0.092678003013134,-0.07350324839353561,0.15562310814857483,0.19153612852096558,10.000580787658691
1689018013857591043,-0.03515372797846794,0.09161274135112762,-0.0649811327457428,0.1735796183347702,0.2106897532939911,10.004171371459961
1689018013867591043,-0.04367584362626076,0.08735168725252151,-0.058589544147253036,0.18076223134994507,0.2238578498363495,9.999382972717285
1689018013876591043,-0.05326322093605995,0.08309062570333481,-0.052197955548763275,0.1867477297782898,0.23702596127986908,9.99339771270752
1689018013886591043,-0.06178533658385277,0.07989483326673508,-0.04367584362626076,0.21308395266532898,0.23582886159420013,9.988609313964844
1689018013895591043,-0.06817692518234253,0.07669904083013535,-0.03834952041506767,0.24899697303771973,0.22266075015068054,9.981427192687988
1689018013905591043,-0.07456851005554199,0.07563377171754837,-0.03515372797846794,0.24779987335205078,0.21188685297966003,10.008959770202637
1689018013914591043,-0.07989483326673508,0.07456851005554199,-0.034088462591171265,0.22026655077934265,0.21787235140800476,10.04846477508545
1689018013924591043,-0.08522115647792816,0.07137271761894226,-0.030892668291926384,0.20949263870716095,0.22744916379451752,10.093954086303711
1689018013934591043,-0.09054747968912125,0.0649811327457428,-0.027696875855326653,0.19871874153614044,0.23343466222286224,10.141838073730469
1689018013943591043,-0.09480853378772736,0.05752427875995636,-0.023435818031430244,0.19033902883529663,0.24061726033687592,10.168174743652344
1689018013953591043,-0.09587380290031433,0.052197955548763275,-0.017044231295585632,0.18794482946395874,0.24420857429504395,10.160991668701172
1689018013962591043,-0.09480853378772736,0.05006742849946022,-0.006391586735844612,0.1843535304069519,0.2585737705230713,10.138246536254883
1689018013972591043,-0.08948221057653427,0.052197955548763275,0.007456851191818714,0.1735796183347702,0.28131869435310364,10.11550235748291
1689018013982591043,-0.08309062570333481,0.05645901337265968,0.027696875855326653,0.152031809091568,0.31842881441116333,10.078392028808594
1689018013991591043,-0.07350324839353561,0.06391586363315582,0.05006742849946022,0.10534487664699554,0.3711012601852417,10.047266960144043
1689018014001591043,-0.06391586363315582,0.07243797928094864,0.07563377171754837,0.043095629662275314,0.4273650050163269,10.038887977600098
1689018014010591043,-0.05326322093605995,0.08309062570333481,0.09906959533691406,-0.03950432687997818,0.4884171485900879,10.029311180114746
1689018014021591043,-0.04367584362626076,0.09693906456232071,0.1203748807311058,-0.1388636976480484,0.5710170865058899,10.007762908935547
1689018014030591043,-0.03302319720387459,0.11078750342130661,0.13848437368869781,-0.22625206410884857,0.6584054827690125,10.000580787658691
1689018014039591043,-0.026631610468029976,0.12144014239311218,0.148071750998497,-0.325611412525177,0.727837324142456,10.031704902648926
1689018014049591043,-0.019174760207533836,0.1299622654914856,0.14700649678707123,-0.4321534037590027,0.7781155109405518,10.086771965026855
1689018014059591043,-0.01810949482023716,0.13528858125209808,0.1342233121395111,-0.5267243385314941,0.8212111592292786,10.14902114868164
1689018014069591043,-0.017044231295585632,0.13635385036468506,0.1161138266324997,-0.5949591398239136,0.8643068075180054,10.202890396118164
1689018014078591043,-0.01810949482023716,0.13635385036468506,0.09374327212572098,-0.6368576288223267,0.9026139974594116,10.232817649841309
1689018014087591043,-0.019174760207533836,0.13528858125209808,0.06924218684434891,-0.6871358752250671,0.93254154920578,10.250774383544922
1689018014097591043,-0.02130528911948204,0.13315805792808533,0.044741105288267136,-0.7062894701957703,0.95528644323349,10.27591323852539
1689018014107591043,-0.022370552644133568,0.1299622654914856,0.020240023732185364,-0.6919242739677429,0.9660603404045105,10.290278434753418
1689018014117591043,-0.022370552644133568,0.12463594228029251,-0.004261057823896408,-0.6536170244216919,0.9493009448051453,10.285490036010742
1689018014126591043,-0.023435818031430244,0.11717908829450607,-0.029827404767274857,-0.590170681476593,0.9241618514060974,10.267534255981445
1689018014135591043,-0.023435818031430244,0.10759171098470688,-0.05645901337265968,-0.5255272388458252,0.8918401002883911,10.225635528564453
1689018014145591043,-0.022370552644133568,0.09906959533691406,-0.07989483326673508,-0.4537012279033661,0.8463503122329712,10.181342124938965
1689018014155591043,-0.020240023732185364,0.09054747968912125,-0.10013485699892044,-0.3758896589279175,0.7984662652015686,10.131064414978027
1689018014164591043,-0.015978965908288956,0.08628641813993454,-0.11398329585790634,-0.30885201692581177,0.7577648162841797,10.065223693847656
1689018014173591043,-0.009587380103766918,0.08309062570333481,-0.11930961906909943,-0.2537853717803955,0.7254431247711182,9.999382972717285
1689018014183591043,-0.002130528911948204,0.08202536404132843,-0.11717908829450607,-0.20231004059314728,0.7015010714530945,9.961075782775879
1689018014193591043,0.00532632227987051,0.08096009492874146,-0.10865697264671326,-0.16998831927776337,0.6859387755393982,9.952695846557617
1689018014202591043,0.014913702383637428,0.0788295716047287,-0.09587380290031433,-0.15801730751991272,0.6835445761680603,9.952695846557617
1689018014212591043,0.022370552644133568,0.07669904083013535,-0.08202536404132843,-0.16639702022075653,0.6931213736534119,9.959878921508789
1689018014222591043,0.02876213937997818,0.07243797928094864,-0.06711165606975555,-0.19033902883529663,0.7134720683097839,9.979032516479492
1689018014231591043,0.03621898964047432,0.07030745595693588,-0.052197955548763275,-0.21428105235099792,0.7410054206848145,9.987412452697754
1689018014241591043,0.044741105288267136,0.07030745595693588,-0.037284255027770996,-0.264559268951416,0.7781155109405518,9.967061042785645
1689018014251591043,0.05432848632335663,0.07243797928094864,-0.022370552644133568,-0.3579331338405609,0.8355763554573059,9.947907447814941
1689018014260591043,0.06178533658385277,0.07563377171754837,-0.007456851191818714,-0.46327802538871765,0.910993754863739,9.963470458984375
1689018014269591043,0.06711165606975555,0.0788295716047287,0.00532632227987051,-0.5722141861915588,0.9876081943511963,10.000580787658691
1689018014279591043,0.06711165606975555,0.08202536404132843,0.012783173471689224,-0.6787561774253845,1.0654197931289673,10.031704902648926
1689018014289591043,0.06391586363315582,0.08415588736534119,0.013848437927663326,-0.8044517636299133,1.1623848676681519,10.065223693847656
1689018014298591043,0.05645901337265968,0.08309062570333481,0.008522115647792816,-0.95528644323349,1.2473790645599365,10.101137161254883
1689018014308591043,0.04580637067556381,0.08096009492874146,-0.004261057823896408,-1.0486602783203125,1.302445650100708,10.096348762512207
1689018014318591043,0.034088462591171265,0.07669904083013535,-0.026631610468029976,-1.1061211824417114,1.3491326570510864,10.074800491333008
1689018014327591043,0.01810949482023716,0.06924218684434891,-0.055393751710653305,-1.1695674657821655,1.3886369466781616,10.072406768798828
1689018014337591043,-0.001065264455974102,0.05645901337265968,-0.08628641813993454,-1.2306196689605713,1.4173673391342163,10.101137161254883
1689018014346591043,-0.023435818031430244,0.03941478580236435,-0.11824434995651245,-1.3000514507293701,1.4508862495422363,10.128669738769531
1689018014356591043,-0.047936901450157166,0.02130528911948204,-0.14274543523788452,-1.3443442583084106,1.4652514457702637,10.121487617492676
1689018014366591043,-0.07243797928094864,0.004261057823896408,-0.15872439742088318,-1.3443442583084106,1.4317325353622437,10.091560363769531
1689018014375591043,-0.09480853378772736,-0.011717909015715122,-0.16618125140666962,-1.304839849472046,1.3623007535934448,10.041281700134277
1689018014385591043,-0.11291802674531937,-0.02556634694337845,-0.16511598229408264,-1.2282254695892334,1.2701239585876465,9.982624053955078
1689018014394591043,-0.12463594228029251,-0.03621898964047432,-0.15552860498428345,-1.1552022695541382,1.1731587648391724,9.93593692779541
1689018014404591043,-0.13209278881549835,-0.044741105288267136,-0.13635385036468506,-1.092953085899353,1.0761936902999878,9.908403396606445
1689018014414591043,-0.13315805792808533,-0.049002163112163544,-0.10865697264671326,-1.0474631786346436,1.0007762908935547,9.874884605407715
1689018014424591043,-0.12783172726631165,-0.05006742849946022,-0.07669904083013535,-1.0223240852355957,0.9433154463768005,9.84735107421875
1689018014433591043,-0.1203748807311058,-0.049002163112163544,-0.041545312851667404,-1.0043675899505615,0.910993754863739,9.842562675476074
1689018014442591043,-0.11185276508331299,-0.04580637067556381,-0.006391586735844612,-1.0043675899505615,0.9050082564353943,9.849745750427246
1689018014452591043,-0.10120011866092682,-0.04261057823896408,0.030892668291926384,-1.016338586807251,0.9062053561210632,9.855731010437012
1689018014461591043,-0.09161274135112762,-0.037284255027770996,0.0649811327457428,-1.013944387435913,0.9265560507774353,9.838972091674805
1689018014472591043,-0.08309062570333481,-0.034088462591171265,0.09374327212572098,-1.0187327861785889,0.9852139949798584,9.850942611694336
1689018014481591043,-0.07989483326673508,-0.03302319720387459,0.11398329585790634,-1.0761936902999878,1.0905588865280151,9.898826599121094
1689018014490591043,-0.08096009492874146,-0.03834952041506767,0.12250541150569916,-1.159990668296814,1.2066776752471924,9.947907447814941
1689018014500591043,-0.0884169489145279,-0.047936901450157166,0.12250541150569916,-1.2270283699035645,1.316810965538025,9.99339771270752
1689018014510591043,-0.10013485699892044,-0.06178533658385277,0.11504855751991272,-1.2701239585876465,1.4125789403915405,10.020931243896484
1689018014519591043,-0.11717908829450607,-0.07989483326673508,0.09800432622432709,-1.3060369491577148,1.4832079410552979,10.042478561401367
1689018014529591043,-0.13528858125209808,-0.10333064943552017,0.07456851005554199,-1.3275848627090454,1.5143325328826904,10.064026832580566
1689018014538591043,-0.15446333587169647,-0.13102751970291138,0.044741105288267136,-1.3000514507293701,1.4939818382263184,10.073603630065918
1689018014548591043,-0.17789916694164276,-0.16937704384326935,0.019174760207533836,-1.193509578704834,1.4089876413345337,9.987412452697754
1689018014558591043,-0.1992044448852539,-0.2173139452934265,0.009587380103766918,-1.1121066808700562,1.3000514507293701,9.983820915222168
1689018014567591043,-0.20985709130764008,-0.25353294610977173,-0.00532632227987051,-0.9026139974594116,1.0809820890426636,10.029311180114746
1689018014577591043,-0.2183792144060135,-0.2886866629123688,0.003195793367922306,-0.6093243360519409,0.8259995579719543,10.008959770202637
1689018014586591043,-0.20985709130764008,-0.30786141753196716,0.014913702383637428,-0.4118026793003082,0.608127236366272,10.035296440124512
1689018014596591043,-0.18855179846286774,-0.31212249398231506,0.020240023732185364,-0.16879121959209442,0.3579331338405609,10.0580415725708
1689018014606591043,-0.15552860498428345,-0.3025350868701935,0.029827404767274857,-0.0011971008498221636,0.16160860657691956,10.036493301391602
1689018014615591043,-0.11185276508331299,-0.2780340313911438,0.024501081556081772,0.06344634294509888,-0.0011971008498221636,10.008959770202637
1689018014624591043,-0.06285060197114944,-0.24820661544799805,0.004261057823896408,0.09696516394615173,-0.12449848651885986,10.055646896362305
1689018014634591043,-0.011717909015715122,-0.21624867618083954,-0.030892668291926384,0.09696516394615173,-0.20350714027881622,10.087968826293945
1689018014644591043,0.037284255027770996,-0.18429075181484222,-0.08309062570333481,0.043095629662275314,-0.24181437492370605,10.103530883789062
1689018014654591043,0.0788295716047287,-0.1619201898574829,-0.1395496428012848,-0.08738835901021957,-0.295683890581131,10.198101997375488
1689018014663591043,0.10546118021011353,-0.14700649678707123,-0.18216021358966827,-0.21428105235099792,-0.39145198464393616,10.348937034606934
1689018014672591043,0.11504855751991272,-0.14168016612529755,-0.21198762953281403,-0.25977087020874023,-0.4836287498474121,10.54526138305664
1689018014682591043,0.11185276508331299,-0.14700649678707123,-0.23968449234962463,-0.2621650695800781,-0.5674257874488831,10.799046516418457
1689018014692591043,0.1022653877735138,-0.16085493564605713,-0.260989785194397,-0.20949263870716095,-0.6727706789970398,11.014524459838867
1689018014702591043,0.08628641813993454,-0.1757686287164688,-0.27696874737739563,-0.08259996026754379,-0.8032546639442444,11.149797439575195
1689018014711591043,0.07030745595693588,-0.19387812912464142,-0.28442561626434326,0.0454898327589035,-0.9169792532920837,11.251550674438477
1689018014721591043,0.05752427875995636,-0.20666129887104034,-0.28016453981399536,0.17717091739177704,-1.0127472877502441,11.276689529418945
1689018014731591043,0.055393751710653305,-0.21092236042022705,-0.2684466242790222,0.33997663855552673,-1.0833762884140015,11.191695213317871
1689018014740591043,0.06285060197114944,-0.20666129887104034,-0.2599245309829712,0.4824316203594208,-1.095347285270691,11.086350440979004
1689018014750591043,0.07669904083013535,-0.19600865244865417,-0.2556634545326233,0.5650315880775452,-1.0678139925003052,11.001357078552246
1689018014759591043,0.09374327212572098,-0.1810949593782425,-0.258859246969223,0.6021417379379272,-1.0414776802062988,10.928333282470703
1689018014768591043,0.10972223430871964,-0.16405072808265686,-0.27164241671562195,0.6332663297653198,-1.01753568649292,10.856507301330566
1689018014779591043,0.12676647305488586,-0.14274543523788452,-0.2929477095603943,0.6727706789970398,-0.9516951441764832,10.766724586486816
1689018014788591043,0.14168016612529755,-0.12144014239311218,-0.3238403797149658,0.7170634269714355,-0.8439561128616333,10.669759750366211
1689018014797591043,0.15552860498428345,-0.10013485699892044,-0.362189918756485,0.7410054206848145,-0.7146691679954529,10.583568572998047
1689018014807591043,0.17044231295585632,-0.07989483326673508,-0.40053942799568176,0.7625532150268555,-0.5973533391952515,10.481815338134766
1689018014816591043,0.18322548270225525,-0.06178533658385277,-0.43782368302345276,0.8032546639442444,-0.46327802538871765,10.358513832092285
1689018014827591043,0.19281286001205444,-0.04261057823896408,-0.46658581495285034,0.8080430626869202,-0.3280056416988373,10.257957458496094
1689018014836591043,0.19707392156124115,-0.02556634694337845,-0.4868258535861969,0.7781155109405518,-0.23942016065120697,10.160991668701172
1689018014846591043,0.19600865244865417,-0.012783173471689224,-0.4921521842479706,0.7433996200561523,-0.15921440720558167,10.121487617492676
1689018014855591043,0.18855179846286774,-0.00532632227987051,-0.4868258535861969,0.6835445761680603,-0.090979665517807,10.090362548828125
1689018014865591043,0.1768338978290558,-0.003195793367922306,-0.48043426871299744,0.5865793824195862,-0.06224924325942993,10.062829971313477
1689018014874591043,0.1619201898574829,-0.004261057823896408,-0.4633900225162506,0.5015852451324463,-0.03711012750864029,10.089165687561035
1689018014884591043,0.14168016612529755,-0.007456851191818714,-0.4356931447982788,0.4381389021873474,-0.02274491637945175,10.050858497619629
1689018014893591043,0.12144014239311218,-0.01065264455974102,-0.4048004746437073,0.363918662071228,-0.040701426565647125,9.977835655212402
1689018014903591043,0.10333064943552017,-0.012783173471689224,-0.37284255027770996,0.2717418968677521,-0.04668693244457245,9.910798072814941
1689018014913591043,0.0884169489145279,-0.015978965908288956,-0.34621095657348633,0.1843535304069519,-0.043095629662275314,9.854534149169922
1689018014922591043,0.0788295716047287,-0.02130528911948204,-0.3302319645881653,0.10295066982507706,-0.05746084079146385,9.81143856048584
1689018014930325922,0.07456851005554199,-0.02876213937997818,-0.324905663728714,-0.0011971008498221636,-0.07661445438861847,9.745597839355469
1689018014940325922,0.07989483326673508,-0.030892668291926384,-0.3238403797149658,-0.08140285313129425,-0.10055647045373917,9.661800384521484
1689018014949325922,0.08948221057653427,-0.027696875855326653,-0.32277512550354004,-0.07661445438861847,-0.12330138683319092,9.581595420837402
1689018014959325922,0.10120011866092682,-0.023435818031430244,-0.3238403797149658,-0.05147533491253853,-0.13407529890537262,9.509769439697266
1689018014968325922,0.11398329585790634,-0.019174760207533836,-0.3238403797149658,-0.0694318488240242,-0.13168108463287354,9.460687637329102
1689018014978325922,0.1257012039422989,-0.01065264455974102,-0.32277512550354004,-0.09576806426048279,-0.12090718746185303,9.427168846130371
1689018014987325922,0.13528858125209808,-0.001065264455974102,-0.3195793330669403,-0.11013327538967133,-0.08858545869588852,9.367314338684082
1689018014997325922,0.14168016612529755,0.006391586735844612,-0.3142530024051666,-0.13407529890537262,-0.02274491637945175,9.29189682006836
1689018015007325922,0.1438107043504715,0.015978965908288956,-0.3057308793067932,-0.1711854189634323,0.040701426565647125,9.226056098937988
1689018015016325922,0.1395496428012848,0.023435818031430244,-0.29401299357414246,-0.208295539021492,0.07781155407428741,9.148244857788086
1689018015026325922,0.13741911947727203,0.034088462591171265,-0.27164241671562195,-0.20111294090747833,0.09217676520347595,9.027337074279785
1689018015035325922,0.13528858125209808,0.05006742849946022,-0.23755396902561188,-0.1364694982767105,0.08858545869588852,8.894458770751953
1689018015045325922,0.13315805792808533,0.07137271761894226,-0.19600865244865417,-0.06464344263076782,0.10534487664699554,8.819042205810547
1689018015054325922,0.13102751970291138,0.09161274135112762,-0.148071750998497,-0.040701426565647125,0.14724339544773102,8.81784439086914
1689018015064325922,0.1257012039422989,0.11078750342130661,-0.09587380290031433,-0.05746084079146385,0.2059013396501541,8.856151580810547
1689018015074325922,0.1161138266324997,0.1257012039422989,-0.04261057823896408,-0.07182604819536209,0.27054479718208313,8.90882396697998
1689018015084325922,0.10333064943552017,0.13528858125209808,0.009587380103766918,-0.08738835901021957,0.333991140127182,8.990227699279785
1689018015093325922,0.08735168725252151,0.14061491191387177,0.058589544147253036,-0.10773907601833344,0.37229835987091064,9.081207275390625
1689018015102325922,0.07350324839353561,0.14274543523788452,0.10120011866092682,-0.10175357013940811,0.39145198464393616,9.130288124084473
1689018015112325922,0.06178533658385277,0.14700649678707123,0.14061491191387177,-0.08379705995321274,0.4321534037590027,9.17817211151123
1689018015122325922,0.052197955548763275,0.14913702011108398,0.1768338978290558,-0.07541735470294952,0.4800374209880829,9.254786491394043
1689018015132325922,0.04580637067556381,0.15020228922367096,0.2045307755470276,-0.06224924325942993,0.5255272388458252,9.319430351257324
1689018015141325922,0.03941478580236435,0.14913702011108398,0.22370553016662598,-0.06823474913835526,0.6009446382522583,9.405621528625488
1689018015150325922,0.03621898964047432,0.14487595856189728,0.2322276532649994,-0.11851298063993454,0.6835445761680603,9.50737476348877
1689018015160325922,0.034088462591171265,0.13635385036468506,0.22903186082839966,-0.16639702022075653,0.7398083209991455,9.591172218322754
1689018015170325922,0.03302319720387459,0.1257012039422989,0.21198762953281403,-0.17477671802043915,0.772130012512207,9.661800384521484
1689018015179325922,0.030892668291926384,0.11291802674531937,0.18002969026565552,-0.16400282084941864,0.7757213115692139,9.740809440612793
1689018015189325922,0.030892668291926384,0.10333064943552017,0.14274543523788452,-0.13168108463287354,0.7613561153411865,9.801861763000488
1689018015199325922,0.03195793181657791,0.09587380290031433,0.1065264418721199,-0.06464344263076782,0.7326257228851318,9.816226959228516
1689018015208325922,0.037284255027770996,0.092678003013134,0.07456851005554199,0.020350713282823563,0.6967126727104187,9.819818496704102
1689018015218325922,0.04367584362626076,0.09054747968912125,0.047936901450157166,0.08619125932455063,0.6548141837120056,9.86889934539795
1689018015227325922,0.05006742849946022,0.08628641813993454,0.02556634694337845,0.11252747476100922,0.6033388376235962,9.959878921508789
1689018015237325922,0.05645901337265968,0.07669904083013535,0.00532632227987051,0.1628057062625885,0.5674257874488831,10.08318042755127
1689018015246325922,0.05965480953454971,0.06285060197114944,0.0,0.295683890581131,0.507570743560791,10.243592262268066
1689018015256325922,0.049002163112163544,0.047936901450157166,0.024501081556081772,0.49799394607543945,0.4082113802433014,10.493785858154297
1689018015265325922,0.024501081556081772,0.03302319720387459,0.09054747968912125,0.7182605266571045,0.28730419278144836,10.746374130249023
1689018015275325922,-0.001065264455974102,0.023435818031430244,0.18002969026565552,0.7757213115692139,0.21308395266532898,10.820594787597656
1689018015285325922,-0.008522115647792816,0.024501081556081772,0.26738137006759644,0.6955155730247498,0.22026655077934265,10.799046516418457
1689018015294325922,0.00532632227987051,0.03302319720387459,0.3472762107849121,0.5781996846199036,0.2693476974964142,10.800243377685547
1689018015305325922,0.030892668291926384,0.047936901450157166,0.407996267080307,0.36152446269989014,0.38067805767059326,10.863690376281738
1689018015314325922,0.0649811327457428,0.06285060197114944,0.44634580612182617,0.08738835901021957,0.5171475410461426,11.0671968460083
1689018015323325922,0.09374327212572098,0.07030745595693588,0.4538026452064514,-0.20231004059314728,0.6129156351089478,11.383232116699219
1689018015333325922,0.11078750342130661,0.06711165606975555,0.4261057674884796,-0.4991910457611084,0.6787561774253845,11.711236953735352
1689018015342325922,0.11398329585790634,0.05965480953454971,0.370712012052536,-0.7709329128265381,0.6847416758537292,11.994950294494629
1689018015353325922,0.1065264418721199,0.049002163112163544,0.28975191712379456,-0.9780313968658447,0.6021417379379272,12.182894706726074
1689018015361325922,0.09587380290031433,0.037284255027770996,0.18855179846286774,-1.0845733880996704,0.47165772318840027,12.235568046569824
1689018015371325922,0.08522115647792816,0.030892668291926384,0.09054747968912125,-1.0438718795776367,0.33518823981285095,12.158952713012695
1689018015381325922,0.08096009492874146,0.03302319720387459,0.013848437927663326,-0.833182156085968,0.2717418968677521,12.036849021911621
1689018015390325922,0.08309062570333481,0.04580637067556381,-0.02876213937997818,-0.5051765441894531,0.25019407272338867,11.923124313354492
1689018015400325922,0.08735168725252151,0.06817692518234253,-0.04367584362626076,-0.25498247146606445,0.23822306096553802,11.708843231201172
1689018015409325922,0.10333064943552017,0.09800432622432709,-0.044741105288267136,-0.0802057534456253,0.22505494952201843,11.385625839233398
1689018015419325922,0.12889699637889862,0.1342233121395111,-0.034088462591171265,0.10055647045373917,0.14724339544773102,11.070788383483887
1689018015429325922,0.16085493564605713,0.16618125140666962,-0.012783173471689224,0.17717091739177704,0.0454898327589035,10.78348445892334
1689018015439325922,0.19707392156124115,0.19387812912464142,0.015978965908288956,0.1711854189634323,-0.07422025501728058,10.492588996887207
1689018015448325922,0.23116238415241241,0.2183792144060135,0.047936901450157166,0.09457096457481384,-0.18555063009262085,10.189722061157227
1689018015458325922,0.26205503940582275,0.23968449234962463,0.08202536404132843,-0.04668693244457245,-0.2621650695800781,9.926360130310059
1689018015467325922,0.28549087047576904,0.25353294610977173,0.1065264418721199,-0.19871874153614044,-0.295683890581131,9.743204116821289
1689018015477325922,0.29507824778556824,0.258859246969223,0.1257012039422989,-0.3603273630142212,-0.31364041566848755,9.651026725769043
1689018015486325922,0.28122982382774353,0.250337153673172,0.1533980816602707,-0.4884171485900879,-0.33279404044151306,9.59835433959961
1689018015496325922,0.24501082301139832,0.22796659171581268,0.2045307755470276,-0.6021417379379272,-0.3315969407558441,9.48462963104248
1689018015505325922,0.19281286001205444,0.19281286001205444,0.26205503940582275,-0.7673416137695312,-0.2537853717803955,9.288305282592773
1689018015515325922,0.14061491191387177,0.15126754343509674,0.2972087860107422,-0.9062053561210632,-0.05147533491253853,9.135076522827148
1689018015525325922,0.09054747968912125,0.1022653877735138,0.3025350868701935,-0.9564835429191589,0.1867477297782898,9.093177795410156
1689018015534325922,0.037284255027770996,0.05006742849946022,0.2822950780391693,-0.9983820915222168,0.4010287821292877,9.127893447875977
1689018015544325922,-0.014913702383637428,-0.001065264455974102,0.23009711503982544,-1.115697979927063,0.6404489278793335,9.228450775146484
1689018015553325922,-0.06391586363315582,-0.044741105288267136,0.15020228922367096,-1.2294225692749023,0.8655039072036743,9.354146003723145
1689018015563325922,-0.11078750342130661,-0.08096009492874146,0.06285060197114944,-1.2258312702178955,0.9445125460624695,9.397241592407227
1689018015573325922,-0.1533980816602707,-0.10972223430871964,-0.020240023732185364,-1.138442873954773,0.871489405632019,9.32421875
1689018015582325922,-0.18855179846286774,-0.13102751970291138,-0.0788295716047287,-1.039083480834961,0.689530074596405,9.18056583404541
1689018015592325922,-0.21092236042022705,-0.14061491191387177,-0.11291802674531937,-0.9241618514060974,0.44173020124435425,9.011775016784668
1689018015602325922,-0.21624867618083954,-0.1395496428012848,-0.11185276508331299,-0.7026981711387634,0.19033902883529663,8.768763542175293
1689018015611325922,-0.1992044448852539,-0.13848437368869781,-0.05752427875995636,-0.3687070608139038,-0.10534487664699554,8.425195693969727
1689018015621325922,-0.15978966653347015,-0.14594122767448425,0.04367584362626076,-0.07182604819536209,-0.39145198464393616,8.118738174438477
1689018015630325922,-0.1022653877735138,-0.1576591432094574,0.16831177473068237,0.1735796183347702,-0.590170681476593,8.093598365783691
1689018015640325922,-0.055393751710653305,-0.16511598229408264,0.3142530024051666,0.38067805767059326,-0.7793126106262207,8.3306245803833
1689018015650325922,-0.030892668291926384,-0.16405072808265686,0.4548678994178772,0.36750996112823486,-0.8643068075180054,8.5903959274292
1689018015660325922,-0.011717909015715122,-0.148071750998497,0.5571333169937134,0.15921440720558167,-0.7673416137695312,8.821435928344727
1689018015668325922,0.001065264455974102,-0.11504855751991272,0.6146575808525085,-0.08140285313129425,-0.5889735817909241,9.097966194152832
1689018015678325922,0.004261057823896408,-0.06711165606975555,0.6317018270492554,-0.1975216418504715,-0.33758243918418884,9.398438453674316
1689018015688325922,-0.003195793367922306,-0.011717909015715122,0.6306365728378296,-0.08259996026754379,-0.009576806798577309,9.57560920715332
1689018015698325922,0.001065264455974102,0.037284255027770996,0.6274407505989075,0.18914192914962769,0.3519476354122162,9.498994827270508
1689018015708325922,0.034088462591171265,0.05965480953454971,0.6008091568946838,0.42018237709999084,0.6260837316513062,9.356539726257324
1689018015717325922,0.07456851005554199,0.06817692518234253,0.5454154014587402,0.44412440061569214,0.8092401623725891,9.423577308654785
1689018015726325922,0.1065264418721199,0.07989483326673508,0.47936898469924927,0.31603461503982544,0.9828197956085205,9.618704795837402
1689018015736325922,0.12889699637889862,0.09693906456232071,0.4048004746437073,0.13287819921970367,1.1228805780410767,9.801861763000488
1689018015746325922,0.14274543523788452,0.12144014239311218,0.3281014561653137,-0.03711012750864029,1.2090718746185303,9.913191795349121
1689018015755325922,0.15659387409687042,0.15020228922367096,0.25672873854637146,-0.19273322820663452,1.2629413604736328,9.949105262756348
1689018015765325922,0.1757686287164688,0.18002969026565552,0.19174760580062866,-0.3387795388698578,1.2952630519866943,9.93593692779541
1689018015774325922,0.19813919067382812,0.20666129887104034,0.14594122767448425,-0.43933600187301636,1.2665326595306396,9.943119049072266
1689018015784325922,0.22157500684261322,0.22477079927921295,0.11930961906909943,-0.4967968463897705,1.2222399711608887,10.018536567687988
1689018015794325922,0.2407497614622116,0.23329290747642517,0.11185276508331299,-0.5219359397888184,1.1671732664108276,10.15021800994873
1689018015803325922,0.24927188456058502,0.23329290747642517,0.12357067316770554,-0.5386953949928284,1.0857704877853394,10.302249908447266
1689018015813325922,0.2514024078845978,0.222640261054039,0.13528858125209808,-0.5482721924781799,1.092953085899353,10.461463928222656
1689018015822325922,0.258859246969223,0.20240023732185364,0.13528858125209808,-0.545877993106842,1.2210428714752197,10.625467300415039
1689018015832325922,0.27696874737739563,0.17470337450504303,0.12463594228029251,-0.5267243385314941,1.3515268564224243,10.764330863952637
1689018015841325922,0.2972087860107422,0.14061491191387177,0.10439591109752655,-0.5279214382171631,1.4293383359909058,10.928333282470703
1689018015851325922,0.3099919557571411,0.10759171098470688,0.07350324839353561,-0.5614402890205383,1.4724340438842773,11.174936294555664
1689018015860325922,0.30786141753196716,0.0788295716047287,0.05326322093605995,-0.5805938839912415,1.455674648284912,11.449071884155273
1689018015870325922,0.2886866629123688,0.06072007119655609,0.04367584362626076,-0.606930136680603,1.37906014919281,11.694478034973145
1689018015880325922,0.25779399275779724,0.05006742849946022,0.027696875855326653,-0.6320692300796509,1.3072340488433838,11.875240325927734
1689018015890325922,0.2269013226032257,0.04367584362626076,0.002130528911948204,-0.6153098344802856,1.2485761642456055,11.94946002960205
1689018015899325922,0.2045307755470276,0.037284255027770996,-0.02876213937997818,-0.6021417379379272,1.2449848651885986,11.907562255859375
1689018015909325922,0.20026971399784088,0.024501081556081772,-0.03621898964047432,-0.6368576288223267,1.338358759880066,11.840524673461914
1689018015918325922,0.20985709130764008,0.007456851191818714,-0.024501081556081772,-0.5770025849342346,1.42454993724823,11.713631629943848
1689018015928325922,0.222640261054039,-0.009587380103766918,-0.003195793367922306,-0.4129997789859772,1.4185644388198853,11.57357120513916
1689018015937325922,0.222640261054039,-0.019174760207533836,0.003195793367922306,-0.29807811975479126,1.334767460823059,11.581950187683105
1689018015947325922,0.20240023732185364,-0.023435818031430244,-0.020240023732185364,-0.15562310814857483,1.3120225667953491,11.650185585021973
1689018015956325922,0.17363810539245605,-0.02556634694337845,-0.05326322093605995,0.02513911761343479,1.380257248878479,11.611878395080566
1689018015967325922,0.148071750998497,-0.027696875855326653,-0.09693906456232071,0.13527239859104156,1.3886369466781616,11.434706687927246
1689018015976325922,0.1203748807311058,-0.02556634694337845,-0.14594122767448425,0.15682020783424377,1.2964601516723633,11.262324333190918
1689018015985325922,0.08735168725252151,-0.01810949482023716,-0.18002969026565552,0.06823474913835526,1.2318167686462402,11.21444034576416
1689018015995325922,0.05432848632335663,-0.00532632227987051,-0.19600865244865417,0.010773907415568829,1.2246341705322266,11.036072731018066
1689018016005325922,0.02556634694337845,0.011717909015715122,-0.21624867618083954,0.10055647045373917,1.2449848651885986,10.667365074157715
1689018016015325922,0.00532632227987051,0.030892668291926384,-0.23861923813819885,0.22744916379451752,1.3263877630233765,10.277111053466797
1689018016024325922,-0.002130528911948204,0.04367584362626076,-0.2556634545326233,0.33518823981285095,1.4077905416488647,9.898826599121094
1689018016033325922,-0.003195793367922306,0.055393751710653305,-0.2684466242790222,0.4141968786716461,1.4676456451416016,9.621099472045898
1689018016043325922,-0.003195793367922306,0.06711165606975555,-0.2737729549407959,0.46806642413139343,1.4927847385406494,9.475052833557129
1689018016052325922,-0.00532632227987051,0.07989483326673508,-0.27590349316596985,0.48123452067375183,1.4449007511138916,9.396044731140137
1689018016063325922,-0.017044231295585632,0.10013485699892044,-0.27590349316596985,0.43335050344467163,1.2952630519866943,9.309853553771973
1689018016072325922,-0.044741105288267136,0.12889699637889862,-0.25246766209602356,0.3663128614425659,1.0678139925003052,9.184157371520996
1689018016081325922,-0.07563377171754837,0.16085493564605713,-0.185356006026268,0.3100491166114807,0.8104372620582581,9.02254867553711
1689018016091325922,-0.10972223430871964,0.19174760580062866,-0.09906959533691406,0.2585737705230713,0.5853822827339172,8.876502990722656
1689018016100325922,-0.14168016612529755,0.2173139452934265,-0.017044231295585632,0.23582886159420013,0.4321534037590027,8.722076416015625
1689018016110325922,-0.1672465205192566,0.23435817658901215,0.03941478580236435,0.24061726033687592,0.3411737382411957,8.565256118774414
1689018016119325922,-0.18429075181484222,0.23755396902561188,0.0511326938867569,0.2561795711517334,0.2825157940387726,8.439560890197754
1689018016129325922,-0.19707392156124115,0.22903186082839966,0.00532632227987051,0.24779987335205078,0.25737667083740234,8.359354972839355
1689018016139325922,-0.20985709130764008,0.21198762953281403,-0.07030745595693588,0.11611878126859665,0.2777273952960968,8.29710578918457
1689018016149325922,-0.22477079927921295,0.19707392156124115,-0.1438107043504715,-0.1388636976480484,0.2693476974964142,8.184577941894531
1689018016158325922,-0.24714134633541107,0.19281286001205444,-0.18429075181484222,-0.42856210470199585,0.24899697303771973,8.030152320861816
1689018016168325922,-0.27164241671562195,0.19707392156124115,-0.1768338978290558,-0.6643909811973572,0.2454056739807129,7.918821811676025
1689018016177325922,-0.2918824553489685,0.20133498311042786,-0.14168016612529755,-0.8164227604866028,0.17836801707744598,7.833827972412109
1689018016187325922,-0.30892667174339294,0.20240023732185364,-0.10120011866092682,-0.9002197980880737,0.12210428714752197,7.830236434936523
1689018016197325922,-0.3153182864189148,0.1949433982372284,-0.06711165606975555,-0.9026139974594116,0.16639702022075653,7.85537576675415
1689018016206325922,-0.3067961633205414,0.17789916694164276,-0.0511326938867569,-0.9421183466911316,0.24420857429504395,7.921216011047363
1689018016216325922,-0.287621408700943,0.15872439742088318,-0.037284255027770996,-1.070208191871643,0.33518823981285095,8.010998725891113
1689018016225325922,-0.2599245309829712,0.14274543523788452,-0.020240023732185364,-1.2114660739898682,0.42018237709999084,8.068459510803223
1689018016235325922,-0.22903186082839966,0.13102751970291138,-0.008522115647792816,-1.3072340488433838,0.4429273009300232,8.23006820678711
1689018016245325922,-0.19813919067382812,0.12144014239311218,0.0,-1.280897855758667,0.4704606235027313,8.368931770324707
1689018016254325922,-0.16937704384326935,0.11291802674531937,0.011717909015715122,-1.1683703660964966,0.5817909836769104,8.474276542663574
1689018016263325922,-0.1438107043504715,0.10972223430871964,0.014913702383637428,-1.0642226934432983,0.7038952708244324,8.611943244934082
1689018016273325922,-0.12357067316770554,0.10972223430871964,0.012783173471689224,-1.013944387435913,0.7984662652015686,8.785523414611816
1689018016283325922,-0.11291802674531937,0.11291802674531937,0.004261057823896408,-1.0007762908935547,0.8583213090896606,9.016563415527344
1689018016292325922,-0.10972223430871964,0.1161138266324997,-0.006391586735844612,-0.9852139949798584,0.8738836050033569,9.251194953918457
1689018016302325922,-0.11078750342130661,0.1161138266324997,-0.009587380103766918,-0.9864110946655273,0.8667010068893433,9.463082313537598
1689018016312325922,-0.11504855751991272,0.10865697264671326,-0.007456851191818714,-1.0127472877502441,0.834379255771637,9.646238327026367
1689018016321325922,-0.11824434995651245,0.09906959533691406,0.0,-1.0307037830352783,0.8104372620582581,9.794678688049316
1689018016331325922,-0.11930961906909943,0.08735168725252151,0.00532632227987051,-1.0307037830352783,0.7852981686592102,9.952695846557617
1689018016340325922,-0.11291802674531937,0.07456851005554199,0.007456851191818714,-0.9995791912078857,0.7805097699165344,10.107122421264648
1689018016350325922,-0.10013485699892044,0.058589544147253036,0.00532632227987051,-0.9481038451194763,0.8092401623725891,10.177751541137695
1689018016360325922,-0.0788295716047287,0.04367584362626076,0.001065264455974102,-0.8774749040603638,0.833182156085968,10.200495719909668
1689018016370325922,-0.05752427875995636,0.03302319720387459,-0.002130528911948204,-0.8092401623725891,0.8475474119186401,10.244789123535156
1689018016379325922,-0.03621898964047432,0.02556634694337845,-0.007456851191818714,-0.7829039692878723,0.8248024582862854,10.280701637268066
1689018016389325922,-0.023435818031430244,0.024501081556081772,-0.012783173471689224,-0.7661445140838623,0.772130012512207,10.336965560913086
1689018016398325922,-0.012783173471689224,0.027696875855326653,-0.012783173471689224,-0.7386112213134766,0.730231523513794,10.425551414489746
1689018016407325922,0.0,0.03302319720387459,-0.009587380103766918,-0.7182605266571045,0.6751648783683777,10.497377395629883
1689018016418325922,0.02130528911948204,0.034088462591171265,-0.007456851191818714,-0.7410054206848145,0.6380547285079956,10.541669845581055
1689018016427325922,0.05326322093605995,0.034088462591171265,-0.004261057823896408,-0.788889467716217,0.6727706789970398,10.582371711730957
1689018016436325922,0.08628641813993454,0.03621898964047432,-0.001065264455974102,-0.8271966576576233,0.6931213736534119,10.645817756652832
1689018016446325922,0.10865697264671326,0.03834952041506767,0.002130528911948204,-0.8355763554573059,0.6655880808830261,10.732008934020996
1689018016456325922,0.11717908829450607,0.037284255027770996,0.0,-0.8259995579719543,0.6129156351089478,10.893617630004883
1689018016465325922,0.1065264418721199,0.02876213937997818,-0.008522115647792816,-0.8188169598579407,0.5219359397888184,11.103110313415527
1689018016475325922,0.08628641813993454,0.009587380103766918,-0.022370552644133568,-0.7996633648872375,0.40701428055763245,11.279084205627441
1689018016484325922,0.06924218684434891,-0.015978965908288956,-0.04367584362626076,-0.7841010689735413,0.31124621629714966,11.420341491699219
1689018016494325922,0.06604639440774918,-0.05006742849946022,-0.07243797928094864,-0.7469909191131592,0.2885012924671173,11.51970100402832
1689018016504325922,0.07989483326673508,-0.0884169489145279,-0.08628641813993454,-0.7098807692527771,0.33039984107017517,11.529277801513672
1689018016513325922,0.10120011866092682,-0.11717908829450607,-0.07243797928094864,-0.7254431247711182,0.3758896589279175,11.489773750305176
1689018016523325922,0.1203748807311058,-0.1342233121395111,-0.037284255027770996,-0.7697358131408691,0.4106055796146393,11.493365287780762
1689018016532325922,0.12357067316770554,-0.14061491191387177,0.002130528911948204,-0.8224082589149475,0.4944026470184326,11.54005241394043
1689018016542325922,0.1161138266324997,-0.13741911947727203,0.04580637067556381,-0.8930371999740601,0.5877764821052551,11.625045776367188
1689018016552325922,0.09693906456232071,-0.12676647305488586,0.08522115647792816,-0.9504980444908142,0.5817909836769104,11.730391502380371
1689018016561325922,0.06178533658385277,-0.11398329585790634,0.11078750342130661,-0.9888052940368652,0.5339069962501526,11.807005882263184
1689018016571325922,0.023435818031430244,-0.10013485699892044,0.11398329585790634,-1.037886381149292,0.5386953949928284,11.817779541015625
1689018016580325922,-0.00532632227987051,-0.09374327212572098,0.09374327212572098,-1.1121066808700562,0.5662286877632141,11.745953559875488
1689018016590325922,-0.022370552644133568,-0.09480853378772736,0.06817692518234253,-1.2210428714752197,0.5602431893348694,11.680112838745117
1689018016599325922,-0.026631610468029976,-0.1065264418721199,0.04580637067556381,-1.303642749786377,0.5111620426177979,11.602301597595215
1689018016609325922,-0.017044231295585632,-0.12889699637889862,0.034088462591171265,-1.357512354850769,0.4668693244457245,11.474211692810059
1689018016618325922,-0.003195793367922306,-0.1533980816602707,0.03834952041506767,-1.4149731397628784,0.42377370595932007,11.313799858093262
1689018016628325922,0.0,-0.16511598229408264,0.05432848632335663,-1.422155737876892,0.3711012601852417,11.040861129760742
1689018016638325922,-0.011717909015715122,-0.1619201898574829,0.07563377171754837,-1.303642749786377,0.3064578175544739,10.630255699157715
1689018016647325922,-0.04048004746437073,-0.15126754343509674,0.0884169489145279,-1.1336544752120972,0.16998831927776337,10.338162422180176
1689018016657325922,-0.07669904083013535,-0.13635385036468506,0.09800432622432709,-1.07379949092865,0.017956512048840523,10.134655952453613
1689018016667325922,-0.10333064943552017,-0.1203748807311058,0.11824434995651245,-1.180341362953186,-0.06823474913835526,9.947907447814941
1689018016677325922,-0.1161138266324997,-0.11185276508331299,0.14168016612529755,-1.3060369491577148,-0.10893617570400238,9.818620681762695
1689018016686325922,-0.11504855751991272,-0.1065264418721199,0.15659387409687042,-1.3479355573654175,-0.1173158809542656,9.642646789550781
1689018016696325922,-0.11078750342130661,-0.10120011866092682,0.1576591432094574,-1.3946224451065063,-0.07422025501728058,9.503783226013184
1689018016705325922,-0.10333064943552017,-0.09480853378772736,0.15552860498428345,-1.42454993724823,0.04189852997660637,9.38167953491211
1689018016715325922,-0.09906959533691406,-0.08309062570333481,0.15446333587169647,-1.40180504322052,0.181959331035614,9.248801231384277
1689018016725325922,-0.10120011866092682,-0.07137271761894226,0.15446333587169647,-1.381454348564148,0.2693476974964142,9.199719429016113
1689018016734325922,-0.10759171098470688,-0.05965480953454971,0.1576591432094574,-1.2737152576446533,0.2849099934101105,9.163806915283203
1689018016743325922,-0.1257012039422989,-0.052197955548763275,0.15872439742088318,-1.0546457767486572,0.264559268951416,9.08719253540039
1689018016753325922,-0.148071750998497,-0.0511326938867569,0.16085493564605713,-0.8271966576576233,0.22744916379451752,9.026140213012695
1689018016763325922,-0.16618125140666962,-0.06072007119655609,0.1576591432094574,-0.6320692300796509,0.1759738177061081,8.901641845703125
1689018016773325922,-0.17789916694164276,-0.07776430249214172,0.1619201898574829,-0.5183446407318115,0.10654197633266449,8.731653213500977
1689018016782325922,-0.18429075181484222,-0.09906959533691406,0.15978966653347015,-0.46327802538871765,0.0454898327589035,8.56645393371582
1689018016791325922,-0.185356006026268,-0.12676647305488586,0.15020228922367096,-0.4118026793003082,0.03950432687997818,8.434772491455078
1689018016801325922,-0.18429075181484222,-0.15552860498428345,0.13741911947727203,-0.39624038338661194,0.09816227108240128,8.339004516601562
1689018016811325922,-0.17896442115306854,-0.18642127513885498,0.1203748807311058,-0.3818751573562622,0.1999158412218094,8.251616477966309
1689018016820325922,-0.1715075671672821,-0.21518342196941376,0.11078750342130661,-0.3770867586135864,0.3064578175544739,8.191761016845703
1689018016830325922,-0.1619201898574829,-0.23755396902561188,0.10546118021011353,-0.4010287821292877,0.37469255924224854,8.185775756835938
1689018016839325922,-0.15552860498428345,-0.25672873854637146,0.09161274135112762,-0.40940847992897034,0.424970805644989,8.287528991699219
1689018016849325922,-0.14700649678707123,-0.27057716250419617,0.07989483326673508,-0.4489127993583679,0.5339069962501526,8.412027359008789
1689018016859325922,-0.1299622654914856,-0.2737729549407959,0.08309062570333481,-0.507570743560791,0.6440402269363403,8.481459617614746
1689018016868325922,-0.10972223430871964,-0.2695119082927704,0.09161274135112762,-0.5063736438751221,0.7182605266571045,8.559270858764648
1689018016878325922,-0.0884169489145279,-0.2599245309829712,0.10546118021011353,-0.48123452067375183,0.7912836670875549,8.646658897399902
1689018016887325922,-0.06604639440774918,-0.24820661544799805,0.11185276508331299,-0.477643221616745,0.8678981065750122,8.7268648147583
1689018016897325922,-0.041545312851667404,-0.2364886999130249,0.11930961906909943,-0.46806642413139343,0.9469067454338074,8.864531517028809
1689018016907325922,-0.017044231295585632,-0.23009711503982544,0.12463594228029251,-0.45250412821769714,0.9828197956085205,9.074024200439453
1689018016916325922,0.006391586735844612,-0.23329290747642517,0.11504855751991272,-0.45489832758903503,0.970848798751831,9.29189682006836
1689018016926325922,0.02876213937997818,-0.24181503057479858,0.10120011866092682,-0.4668693244457245,0.9349357485771179,9.487024307250977
1689018016935325922,0.05006742849946022,-0.250337153673172,0.08948221057653427,-0.5171475410461426,0.9133879542350769,9.667786598205566
1689018016945325922,0.07243797928094864,-0.2556634545326233,0.07243797928094864,-0.5853822827339172,0.9050082564353943,9.855731010437012
1689018016955325922,0.09693906456232071,-0.25353294610977173,0.05326322093605995,-0.6129156351089478,0.9229647517204285,10.056843757629395
1689018016964325922,0.1257012039422989,-0.24927188456058502,0.037284255027770996,-0.5961562395095825,0.9672574996948242,10.20887565612793
1689018016974325922,0.15552860498428345,-0.2364886999130249,0.02876213937997818,-0.5363011956214905,1.0115501880645752,10.319008827209473
1689018016983325922,0.18216021358966827,-0.22050973773002625,0.02130528911948204,-0.43933600187301636,1.07379949092865,10.445901870727539
1689018016993325922,0.2045307755470276,-0.20026971399784088,0.015978965908288956,-0.3064578175544739,1.1563993692398071,10.583568572998047
1689018017003325922,0.22157500684261322,-0.17789916694164276,0.012783173471689224,-0.15322890877723694,1.235408067703247,10.712855339050293
1689018017012325922,0.2322276532649994,-0.15659387409687042,0.00532632227987051,-0.014365210197865963,1.2832920551300049,10.860098838806152
1689018017022325922,0.23435817658901215,-0.14061491191387177,-0.008522115647792816,0.07062894850969315,1.2773065567016602,11.060014724731445
1689018017031325922,0.2269013226032257,-0.12676647305488586,-0.034088462591171265,0.07661445438861847,1.2210428714752197,11.281477928161621
1689018017041325922,0.21411815285682678,-0.11717908829450607,-0.06072007119655609,0.06224924325942993,1.1061211824417114,11.48618221282959
1689018017050325922,0.1949433982372284,-0.10759171098470688,-0.08522115647792816,0.05027823522686958,0.933738648891449,11.69926643371582
1689018017060325922,0.1715075671672821,-0.10120011866092682,-0.10120011866092682,0.021547814831137657,0.7625532150268555,11.890802383422852
1689018017070325922,0.14913702011108398,-0.09374327212572098,-0.09800432622432709,-0.02274491637945175,0.669179379940033,12.00572395324707
1689018017079325922,0.13209278881549835,-0.08309062570333481,-0.06391586363315582,-0.061052143573760986,0.7469909191131592,12.056002616882324
1689018017089325922,0.12676647305488586,-0.06817692518234253,0.004261057823896408,0.002394201699644327,0.9050082564353943,12.085929870605469
1689018017098325922,0.1257012039422989,-0.06072007119655609,0.0649811327457428,0.18555063009262085,0.9313444495201111,12.139799118041992
1689018017108325922,0.11398329585790634,-0.06285060197114944,0.08628641813993454,0.37469255924224854,0.8032546639442444,12.215216636657715
1689018017118325922,0.08628641813993454,-0.07456851005554199,0.06924218684434891,0.48722004890441895,0.6452373266220093,12.322956085205078
1689018017128325922,0.04261057823896408,-0.08948221057653427,0.029827404767274857,0.5674257874488831,0.5027823448181152,12.389993667602539
1689018017137325922,-0.012783173471689224,-0.10333064943552017,-0.019174760207533836,0.7038952708244324,0.3423708379268646,12.316970825195312
1689018017146325922,-0.07350324839353561,-0.11078750342130661,-0.06924218684434891,0.834379255771637,0.14006079733371735,12.11825180053711
1689018017156325922,-0.13528858125209808,-0.11078750342130661,-0.10759171098470688,0.8690952062606812,-0.07661445438861847,11.852495193481445
1689018017166325922,-0.1896170675754547,-0.10013485699892044,-0.12144014239311218,0.8643068075180054,-0.23942016065120697,11.535264015197754
1689018017175325922,-0.22903186082839966,-0.0788295716047287,-0.10439591109752655,0.9062053561210632,-0.3148375153541565,11.149797439575195
1689018017185325922,-0.250337153673172,-0.049002163112163544,-0.06391586363315582,0.9768342971801758,-0.3100491166114807,10.72602367401123
1689018017194325922,-0.2514024078845978,-0.013848437927663326,-0.011717909015715122,1.0067617893218994,-0.24061726033687592,10.3549222946167
1689018017204325922,-0.2364886999130249,0.023435818031430244,0.04580637067556381,0.9840168952941895,-0.13407529890537262,10.096348762512207
1689018017214325922,-0.2130528837442398,0.05965480953454971,0.09906959533691406,0.93254154920578,-0.0347159244120121,9.974244117736816
1689018017223325922,-0.18748654425144196,0.08948221057653427,0.13528858125209808,0.9097966551780701,0.02753331884741783,9.947907447814941
1689018017233325922,-0.16511598229408264,0.10972223430871964,0.14168016612529755,0.9133879542350769,0.033518824726343155,9.909600257873535
1689018017243325922,-0.15020228922367096,0.11824434995651245,0.11930961906909943,0.9169792532920837,0.009576806798577309,9.836577415466309
1689018017252325922,-0.14061491191387177,0.11824434995651245,0.06924218684434891,0.9217676520347595,-0.019153613597154617,9.78869342803955
1689018017262325922,-0.13102751970291138,0.10759171098470688,0.002130528911948204,0.8918401002883911,-0.03950432687997818,9.690530776977539
1689018017271325922,-0.12463594228029251,0.092678003013134,-0.0649811327457428,0.8307879567146301,-0.07062894850969315,9.488221168518066
1689018017281325922,-0.1203748807311058,0.07669904083013535,-0.1203748807311058,0.7852981686592102,-0.0802057534456253,9.297882080078125
1689018017290325922,-0.11930961906909943,0.05965480953454971,-0.16405072808265686,0.7493851184844971,-0.07062894850969315,9.130288124084473
1689018017300325922,-0.12144014239311218,0.03941478580236435,-0.19387812912464142,0.690727174282074,-0.0694318488240242,8.914810180664062
1689018017310325922,-0.12676647305488586,0.02130528911948204,-0.20772656798362732,0.5829880833625793,-0.061052143573760986,8.708908081054688
1689018017319325922,-0.1342233121395111,0.00532632227987051,-0.2130528837442398,0.46088382601737976,-0.05506663769483566,8.589198112487793
1689018017329325922,-0.14274543523788452,-0.00532632227987051,-0.2034655064344406,0.355538934469223,-0.07062894850969315,8.518569946289062
1689018017338325922,-0.15233281254768372,-0.013848437927663326,-0.1896170675754547,0.26336216926574707,-0.13527239859104156,8.506598472595215
1689018017349325922,-0.15978966653347015,-0.01810949482023716,-0.17789916694164276,0.19153612852096558,-0.2322375625371933,8.51138687133789
1689018017357325922,-0.15872439742088318,-0.017044231295585632,-0.1619201898574829,0.1364694982767105,-0.3148375153541565,8.458714485168457
1689018017367325922,-0.148071750998497,-0.012783173471689224,-0.14061491191387177,0.14724339544773102,-0.355538934469223,8.323442459106445
1689018017377325922,-0.12357067316770554,-0.006391586735844612,-0.1203748807311058,0.1759738177061081,-0.36750996112823486,8.169015884399414
1689018017387325922,-0.08628641813993454,0.004261057823896408,-0.10546118021011353,0.20709843933582306,-0.3471592366695404,8.045714378356934
1689018017396325922,-0.041545312851667404,0.012783173471689224,-0.0884169489145279,0.25977087020874023,-0.29448679089546204,7.9379754066467285
1689018017405325922,0.013848437927663326,0.017044231295585632,-0.07350324839353561,0.26815059781074524,-0.22625206410884857,7.91403341293335
1689018017415325922,0.07243797928094864,0.017044231295585632,-0.05645901337265968,0.243011474609375,-0.14484919607639313,7.970297336578369
1689018017425325922,0.12676647305488586,0.014913702383637428,-0.041545312851667404,0.21188685297966003,-0.06224924325942993,8.098386764526367
1689018017434177024,0.17363810539245605,0.014913702383637428,-0.03302319720387459,0.18555063009262085,0.010773907415568829,8.239645004272461
1689018017444177024,0.21624867618083954,0.01810949482023716,-0.023435818031430244,0.17956513166427612,0.07661445438861847,8.333019256591797
1689018017454177024,0.25779399275779724,0.024501081556081772,-0.014913702383637428,0.16879121959209442,0.17238251864910126,8.439560890197754
1689018017463177024,0.2972087860107422,0.029827404767274857,-0.017044231295585632,0.15083470940589905,0.3208230137825012,8.56645393371582
1689018017473177024,0.333427757024765,0.029827404767274857,-0.034088462591171265,0.1364694982767105,0.49559974670410156,8.707711219787598
1689018017483177024,0.3557983338832855,0.024501081556081772,-0.0649811327457428,0.06584054231643677,0.6607996821403503,8.936357498168945
1689018017492177024,0.36325517296791077,0.013848437927663326,-0.09906959533691406,-0.05506663769483566,0.7924807667732239,9.196128845214844
1689018017501177024,0.35899412631988525,-0.004261057823896408,-0.12357067316770554,-0.1280897855758667,0.871489405632019,9.403226852416992
1689018017511177024,0.3440804183483124,-0.024501081556081772,-0.1342233121395111,-0.12330138683319092,0.9038110971450806,9.516951560974121
1689018017521177024,0.32277512550354004,-0.041545312851667404,-0.1342233121395111,-0.07182604819536209,0.9145850539207458,9.5408935546875
1689018017530177024,0.2972087860107422,-0.05326322093605995,-0.12357067316770554,0.004788403399288654,0.954089343547821,9.556455612182617
1689018017540177024,0.2695119082927704,-0.05752427875995636,-0.09800432622432709,0.061052143573760986,1.0319008827209473,9.611522674560547
1689018017549177024,0.23861923813819885,-0.05752427875995636,-0.06711165606975555,0.06823474913835526,1.1109095811843872,9.744400978088379
1689018017559177024,0.20559602975845337,-0.05645901337265968,-0.03302319720387459,0.061052143573760986,1.1863269805908203,9.921571731567383
1689018017569177024,0.17044231295585632,-0.05432848632335663,0.002130528911948204,0.09935937076807022,1.2497732639312744,10.113107681274414
1689018017578177024,0.13209278881549835,-0.05326322093605995,0.037284255027770996,0.1999158412218094,1.279700756072998,10.326191902160645
1689018017588177024,0.09374327212572098,-0.052197955548763275,0.07137271761894226,0.31124621629714966,1.237802267074585,10.536881446838379
1689018017598177024,0.055393751710653305,-0.0511326938867569,0.09906959533691406,0.3926490843296051,1.1540051698684692,10.7511625289917
1689018017607177024,0.013848437927663326,-0.04580637067556381,0.1161138266324997,0.45489832758903503,1.0630255937576294,11.003750801086426
1689018017617177024,-0.029827404767274857,-0.03941478580236435,0.11930961906909943,0.5015852451324463,0.9564835429191589,11.261127471923828
1689018017626177024,-0.06604639440774918,-0.027696875855326653,0.1161138266324997,0.49320554733276367,0.8559271097183228,11.447875022888184
1689018017636177024,-0.08735168725252151,-0.009587380103766918,0.12463594228029251,0.4225766062736511,0.833182156085968,11.5436429977417
1689018017645177024,-0.0884169489145279,0.013848437927663326,0.16085493564605713,0.355538934469223,0.8918401002883911,11.57476806640625
1689018017656177024,-0.07350324839353561,0.03941478580236435,0.20559602975845337,0.31603461503982544,0.9229647517204285,11.626243591308594
1689018017664177024,-0.0511326938867569,0.05432848632335663,0.22477079927921295,0.2801215946674347,0.8667010068893433,11.808202743530273
1689018017674177024,-0.037284255027770996,0.05432848632335663,0.1992044448852539,0.21188685297966003,0.7338228225708008,12.112266540527344
1689018017684177024,-0.04048004746437073,0.03941478580236435,0.13635385036468506,0.07182604819536209,0.5422866940498352,12.437877655029297
1689018017694177024,-0.06178533658385277,0.01810949482023716,0.06072007119655609,-0.1280897855758667,0.30526071786880493,12.622231483459473
1689018017703177024,-0.09587380290031433,-0.002130528911948204,-0.003195793367922306,-0.3387795388698578,0.08619125932455063,12.600683212280273
1689018017713177024,-0.13315805792808533,-0.015978965908288956,-0.047936901450157166,-0.50876784324646,-0.05147533491253853,12.42590618133545
1689018017722177024,-0.16298545897006989,-0.017044231295585632,-0.06072007119655609,-0.6033388376235962,-0.1173158809542656,12.15057373046875
1689018017732177024,-0.18002969026565552,-0.006391586735844612,-0.04580637067556381,-0.6260837316513062,-0.14245499670505524,11.807005882263184
1689018017742177024,-0.18429075181484222,0.012783173471689224,-0.006391586735844612,-0.5889735817909241,-0.13527239859104156,11.439495086669922
1689018017751177024,-0.1757686287164688,0.03941478580236435,0.04580637067556381,-0.5410895943641663,-0.1256955862045288,11.190498352050781
1689018017761177024,-0.1576591432094574,0.0649811327457428,0.09906959533691406,-0.5147533416748047,-0.10175357013940811,10.971428871154785
1689018017770177024,-0.13848437368869781,0.08628641813993454,0.14487595856189728,-0.5339069962501526,-0.0694318488240242,10.827776908874512
1689018017780177024,-0.11930961906909943,0.10546118021011353,0.1768338978290558,-0.6033388376235962,-0.05027823522686958,10.74876880645752
1689018017790177024,-0.10333064943552017,0.12463594228029251,0.1896170675754547,-0.7182605266571045,-0.02513911761343479,10.632649421691895
1689018017799177024,-0.09054747968912125,0.14168016612529755,0.18642127513885498,-0.8307879567146301,0.0347159244120121,10.557231903076172
1689018017809177024,-0.0788295716047287,0.15446333587169647,0.17363810539245605,-0.8930371999740601,0.1149216815829277,10.461463928222656
1689018017818177024,-0.06817692518234253,0.16085493564605713,0.14913702011108398,-0.9433154463768005,0.1843535304069519,10.360907554626465
1689018017828177024,-0.06178533658385277,0.1619201898574829,0.1161138266324997,-0.9792284965515137,0.22744916379451752,10.225635528564453
1689018017838177024,-0.05752427875995636,0.15872439742088318,0.07030745595693588,-0.9792284965515137,0.2454056739807129,10.032901763916016
1689018017847177024,-0.05432848632335663,0.15126754343509674,0.017044231295585632,-0.9421183466911316,0.2753331959247589,9.84495735168457
1689018017857177024,-0.05432848632335663,0.14487595856189728,-0.044741105288267136,-0.8667010068893433,0.295683890581131,9.645041465759277
1689018017866177024,-0.05965480953454971,0.14168016612529755,-0.10759171098470688,-0.772130012512207,0.2968810200691223,9.436745643615723
1689018017876177024,-0.07243797928094864,0.14700649678707123,-0.16298545897006989,-0.6476315259933472,0.2849099934101105,9.27034854888916
1689018017885177024,-0.09054747968912125,0.1576591432094574,-0.2034655064344406,-0.5111620426177979,0.21547815203666687,9.065644264221191
1689018017895177024,-0.11504855751991272,0.17257283627986908,-0.2269013226032257,-0.424970805644989,0.07661445438861847,8.823830604553223
1689018017904177024,-0.14168016612529755,0.185356006026268,-0.22796659171581268,-0.36152446269989014,-0.08858545869588852,8.598774909973145
1689018017914177024,-0.16511598229408264,0.19387812912464142,-0.21198762953281403,-0.3100491166114807,-0.23104046285152435,8.367734909057617
1689018017924177024,-0.18216021358966827,0.20026971399784088,-0.18429075181484222,-0.2908954918384552,-0.3196259140968323,8.149862289428711
1689018017933177024,-0.19174760580062866,0.2045307755470276,-0.15126754343509674,-0.295683890581131,-0.37229835987091064,7.964311599731445
1689018017943177024,-0.1896170675754547,0.2087918221950531,-0.11078750342130661,-0.30526071786880493,-0.38307225704193115,7.8314337730407715
1689018017953177024,-0.1810949593782425,0.2130528837442398,-0.07030745595693588,-0.3016694188117981,-0.3579331338405609,7.753622055053711
1689018017963177024,-0.16618125140666962,0.21624867618083954,-0.027696875855326653,-0.30885201692581177,-0.3172317147254944,7.706934928894043
1689018017972177024,-0.14487595856189728,0.2183792144060135,0.01810949482023716,-0.386663556098938,-0.27653029561042786,7.681796073913574
1689018017981177024,-0.12357067316770554,0.21944446861743927,0.06604639440774918,-0.545877993106842,-0.2190694510936737,7.711723327636719
1689018017991177024,-0.1022653877735138,0.21518342196941376,0.1203748807311058,-0.7386112213134766,-0.13766659796237946,7.779958248138428
1689018018001177024,-0.0788295716047287,0.20666129887104034,0.17044231295585632,-0.9481038451194763,-0.019153613597154617,7.837419033050537
1689018018011177024,-0.052197955548763275,0.1906823366880417,0.20133498311042786,-1.0893617868423462,0.13407529890537262,7.954734802246094
1689018018020177024,-0.02556634694337845,0.16511598229408264,0.21944446861743927,-1.1252747774124146,0.2513911724090576,8.124723434448242
1689018018030177024,0.001065264455974102,0.1299622654914856,0.21518342196941376,-1.1731587648391724,0.33997663855552673,8.305485725402832
1689018018039177024,0.027696875855326653,0.08948221057653427,0.19387812912464142,-1.2401964664459229,0.4273650050163269,8.492233276367188
1689018018049177024,0.05645901337265968,0.047936901450157166,0.1715075671672821,-1.235408067703247,0.5147533416748047,8.656235694885254
1689018018058177024,0.08628641813993454,0.008522115647792816,0.14913702011108398,-1.1959037780761719,0.6332663297653198,8.826224327087402
1689018018068177024,0.1203748807311058,-0.027696875855326653,0.1257012039422989,-1.1540051698684692,0.750582218170166,9.003395080566406
1689018018077177024,0.15233281254768372,-0.06285060197114944,0.10546118021011353,-1.0881646871566772,0.8379705548286438,9.172186851501465
1689018018087177024,0.18002969026565552,-0.10013485699892044,0.08948221057653427,-1.013944387435913,0.8966284990310669,9.385270118713379
1689018018097177024,0.2045307755470276,-0.13848437368869781,0.07669904083013535,-0.9301473498344421,0.9421183466911316,9.601945877075195
1689018018106177024,0.2269013226032257,-0.1757686287164688,0.05645901337265968,-0.8894459009170532,0.9840168952941895,9.782708168029785
1689018018116177024,0.24501082301139832,-0.20985709130764008,0.020240023732185364,-0.8762778043746948,0.9792284965515137,9.99100399017334
1689018018125177024,0.26205503940582275,-0.23968449234962463,-0.034088462591171265,-0.834379255771637,0.9133879542350769,10.194510459899902
1689018018135177024,0.27483823895454407,-0.26631611585617065,-0.08735168725252151,-0.7805097699165344,0.7936778664588928,10.425551414489746
1689018018145177024,0.27590349316596985,-0.2886866629123688,-0.13209278881549835,-0.6955155730247498,0.6308721303939819,10.72482681274414
1689018018154177024,0.260989785194397,-0.30892667174339294,-0.1619201898574829,-0.5889735817909241,0.43694180250167847,11.051634788513184
1689018018164177024,0.22796659171581268,-0.32277512550354004,-0.17789916694164276,-0.4967968463897705,0.2537853717803955,11.402385711669922
1689018018173177024,0.17896442115306854,-0.333427757024765,-0.18429075181484222,-0.42377370595932007,0.15921440720558167,11.735179901123047
1689018018183177024,0.12250541150569916,-0.3387540876865387,-0.1715075671672821,-0.395043283700943,0.1843535304069519,11.996147155761719
1689018018193177024,0.07243797928094864,-0.33662354946136475,-0.1257012039422989,-0.3663128614425659,0.2849099934101105,12.136208534240723
1689018018202177024,0.030892668291926384,-0.3302319645881653,-0.05645901337265968,-0.25019407272338867,0.34356793761253357,12.210428237915039
1689018018212177024,-0.007456851191818714,-0.33236250281333923,-0.01065264455974102,-0.05386953800916672,0.3076549172401428,12.339715003967285
1689018018221177024,-0.047936901450157166,-0.35473304986953735,-0.003195793367922306,0.13168108463287354,0.23104046285152435,12.556390762329102
1689018018231177024,-0.09161274135112762,-0.3888215124607086,-0.019174760207533836,0.2609679698944092,0.13287819921970367,12.76348876953125
1689018018240177024,-0.14700649678707123,-0.41971418261528015,-0.04261057823896408,0.39145198464393616,-0.009576806798577309,12.824541091918945
1689018018250177024,-0.21198762953281403,-0.4356931447982788,-0.06817692518234253,0.5506663918495178,-0.21667525172233582,12.734758377075195
1689018018260177024,-0.28016453981399536,-0.4314320981502533,-0.092678003013134,0.6787561774253845,-0.45010989904403687,12.479776382446289
1689018018269177024,-0.34088462591171265,-0.40160468220710754,-0.10120011866092682,0.7529764175415039,-0.6476315259933472,12.070367813110352
1689018018279177024,-0.3856257200241089,-0.3483414649963379,-0.08202536404132843,0.8307879567146301,-0.7541735172271729,11.603498458862305
1689018018289177024,-0.4090615510940552,-0.27590349316596985,-0.03621898964047432,0.9241618514060974,-0.7625532150268555,11.161767959594727
1689018018298177024,-0.41119205951690674,-0.19387812912464142,0.023435818031430244,1.0319008827209473,-0.7338228225708008,10.796652793884277
1689018018308177024,-0.39734363555908203,-0.11398329585790634,0.07669904083013535,1.1743558645248413,-0.6823474764823914,10.562020301818848
1689018018318177024,-0.37284255027770996,-0.047936901450157166,0.11398329585790634,1.304839849472046,-0.6500257253646851,10.47942066192627
1689018018327177024,-0.3430151343345642,0.006391586735844612,0.12357067316770554,1.3623007535934448,-0.6500257253646851,10.508151054382324
1689018018336177024,-0.31318774819374084,0.04687163606286049,0.092678003013134,1.3946224451065063,-0.6464344263076782,10.593145370483398
1689018018346177024,-0.2908172011375427,0.07669904083013535,0.03621898964047432,1.4209586381912231,-0.6452373266220093,10.63743782043457
1689018018356177024,-0.2780340313911438,0.1022653877735138,-0.027696875855326653,1.4161702394485474,-0.6763619780540466,10.56920337677002
1689018018366177024,-0.27483823895454407,0.12463594228029251,-0.092678003013134,1.380257248878479,-0.750582218170166,10.396821022033691
1689018018375177024,-0.2780340313911438,0.14594122767448425,-0.1533980816602707,1.2916717529296875,-0.8080430626869202,10.166976928710938
1689018018384177024,-0.28016453981399536,0.1619201898574829,-0.2045307755470276,1.1659761667251587,-0.8259995579719543,9.941922187805176
1689018018394177024,-0.2822950780391693,0.17044231295585632,-0.24181503057479858,1.0307037830352783,-0.8391676545143127,9.742006301879883
1689018018404177024,-0.28122982382774353,0.1715075671672821,-0.26738137006759644,0.9062053561210632,-0.8619126081466675,9.525331497192383
1689018018413177024,-0.2737729549407959,0.16618125140666962,-0.28122982382774353,0.7912836670875549,-0.8906430006027222,9.29069995880127
1689018018423177024,-0.2599245309829712,0.15872439742088318,-0.2780340313911438,0.6919242739677429,-0.9193734526634216,9.069235801696777
1689018018433177024,-0.24394555389881134,0.15020228922367096,-0.258859246969223,0.6045359373092651,-0.9792284965515137,8.880093574523926
1689018018442177024,-0.222640261054039,0.14274543523788452,-0.22903186082839966,0.49559974670410156,-1.0402805805206299,8.7268648147583
1689018018452177024,-0.19813919067382812,0.13209278881549835,-0.19387812912464142,0.3734954595565796,-1.058237075805664,8.655038833618164
1689018018461177024,-0.1672465205192566,0.11717908829450607,-0.15446333587169647,0.29209259152412415,-1.0211269855499268,8.571242332458496
1689018018471177024,-0.1342233121395111,0.10439591109752655,-0.12463594228029251,0.21787235140800476,-0.954089343547821,8.550890922546387
1689018018480177024,-0.09587380290031433,0.09480853378772736,-0.09693906456232071,0.14484919607639313,-0.8643068075180054,8.554482460021973
1689018018490177024,-0.0511326938867569,0.0884169489145279,-0.07456851005554199,0.13766659796237946,-0.7613561153411865,8.462306022644043
1689018018500177024,-0.004261057823896408,0.08628641813993454,-0.05645901337265968,0.14604629576206207,-0.6715735793113708,8.4108304977417
1689018018509177024,0.04580637067556381,0.08735168725252151,-0.04367584362626076,0.1388636976480484,-0.5602431893348694,8.370128631591797
1689018018519177024,0.09693906456232071,0.09161274135112762,-0.034088462591171265,0.14484919607639313,-0.42377370595932007,8.359354972839355
1689018018528177024,0.1438107043504715,0.09800432622432709,-0.027696875855326653,0.15921440720558167,-0.264559268951416,8.414422035217285
1689018018538177024,0.18322548270225525,0.10759171098470688,-0.026631610468029976,0.17836801707744598,-0.09696516394615173,8.525752067565918
1689018018548177024,0.21092236042022705,0.1161138266324997,-0.03195793181657791,0.21787235140800476,0.06823474913835526,8.681375503540039
1689018018557177024,0.23009711503982544,0.12783172726631165,-0.044741105288267136,0.2849099934101105,0.23822306096553802,8.814253807067871
1689018018567177024,0.24181503057479858,0.13741911947727203,-0.06391586363315582,0.33518823981285095,0.3998316824436188,8.949525833129883
1689018018576177024,0.2460760921239853,0.14700649678707123,-0.08522115647792816,0.3543418347835541,0.5111620426177979,9.08958625793457
1689018018586177024,0.24288028478622437,0.15659387409687042,-0.1065264418721199,0.3519476354122162,0.5422866940498352,9.215282440185547
1689018018596177024,0.2322276532649994,0.16511598229408264,-0.1203748807311058,0.31842881441116333,0.5171475410461426,9.306262016296387
1689018018605177024,0.2183792144060135,0.17363810539245605,-0.12463594228029251,0.2609679698944092,0.48722004890441895,9.352949142456055
1689018018615177024,0.20133498311042786,0.17896442115306854,-0.11824434995651245,0.20350714027881622,0.4836287498474121,9.442730903625488
1689018018624177024,0.18322548270225525,0.18002969026565552,-0.10546118021011353,0.15921440720558167,0.49320554733276367,9.567230224609375
1689018018634177024,0.1672465205192566,0.18002969026565552,-0.0884169489145279,0.1149216815829277,0.4967968463897705,9.684545516967773
1689018018644177024,0.1533980816602707,0.17789916694164276,-0.06604639440774918,0.08140285313129425,0.49799394607543945,9.771934509277344
1689018018653177024,0.14594122767448425,0.1757686287164688,-0.04048004746437073,0.08858545869588852,0.49320554733276367,9.835380554199219
1689018018663177024,0.14487595856189728,0.16937704384326935,-0.012783173471689224,0.11971008032560349,0.4836287498474121,9.913191795349121
1689018018673177024,0.148071750998497,0.1576591432094574,0.012783173471689224,0.14724339544773102,0.46567222476005554,10.032901763916016
1689018018682177024,0.15659387409687042,0.14274543523788452,0.037284255027770996,0.15801730751991272,0.4596867263317108,10.182539939880371
1689018018691177024,0.16937704384326935,0.1257012039422989,0.06072007119655609,0.17238251864910126,0.4405331015586853,10.36689281463623
1689018018701177024,0.18322548270225525,0.10333064943552017,0.07350324839353561,0.18555063009262085,0.3890577554702759,10.595539093017578
1689018018711177024,0.1896170675754547,0.0788295716047287,0.07776430249214172,0.1735796183347702,0.33279404044151306,10.85291576385498
1689018018721177024,0.185356006026268,0.0511326938867569,0.07243797928094864,0.12928688526153564,0.264559268951416,11.131840705871582
1689018018730177024,0.1715075671672821,0.02556634694337845,0.06391586363315582,0.06584054231643677,0.20111294090747833,11.355698585510254
1689018018739177024,0.15659387409687042,0.006391586735844612,0.06285060197114944,0.021547814831137657,0.18315643072128296,11.493365287780762
1689018018749177024,0.14700649678707123,-0.006391586735844612,0.08309062570333481,0.0,0.23343466222286224,11.566388130187988
1689018018759177024,0.14700649678707123,-0.017044231295585632,0.11398329585790634,-0.017956512048840523,0.2801215946674347,11.64419937133789
1689018018768177024,0.148071750998497,-0.03195793181657791,0.13102751970291138,-0.0694318488240242,0.25258827209472656,11.81299114227295
1689018018778177024,0.13848437368869781,-0.052197955548763275,0.12144014239311218,-0.17717091739177704,0.15921440720558167,12.103886604309082
1689018018787177024,0.1065264418721199,-0.07776430249214172,0.09374327212572098,-0.3208230137825012,0.033518824726343155,12.49174690246582
1689018018797177024,0.0511326938867569,-0.10759171098470688,0.052197955548763275,-0.47884032130241394,-0.1364694982767105,12.846089363098145
1689018018807177024,-0.022370552644133568,-0.13741911947727203,0.004261057823896408,-0.6212953329086304,-0.3579331338405609,13.036428451538086
1689018018816177024,-0.10333064943552017,-0.16085493564605713,-0.02876213937997818,-0.7266402244567871,-0.5746083855628967,12.987346649169922
1689018018826177024,-0.18002969026565552,-0.17363810539245605,-0.03515372797846794,-0.7745242118835449,-0.7469909191131592,12.721590995788574
1689018018836177024,-0.23861923813819885,-0.1768338978290558,-0.02130528911948204,-0.7422025203704834,-0.8571242094039917,12.33492660522461
1689018018845177024,-0.27483823895454407,-0.17257283627986908,0.004261057823896408,-0.6763619780540466,-0.9493009448051453,11.956643104553223
1689018018854177024,-0.2918824553489685,-0.15978966653347015,0.04261057823896408,-0.6272808313369751,-1.0450689792633057,11.558008193969727
1689018018864177024,-0.29401299357414246,-0.14168016612529755,0.08735168725252151,-0.6607996821403503,-1.113303780555725,11.318588256835938
1689018018874177024,-0.287621408700943,-0.12250541150569916,0.13209278881549835,-0.7074865698814392,-1.157596468925476,11.0887451171875
1689018018883177024,-0.27164241671562195,-0.10013485699892044,0.1715075671672821,-0.7565677165985107,-1.1659761667251587,10.805031776428223
1689018018893177024,-0.2514024078845978,-0.07669904083013535,0.21198762953281403,-0.812831461429596,-1.1504138708114624,10.67215347290039
1689018018903177024,-0.23435817658901215,-0.055393751710653305,0.23755396902561188,-0.8379705548286438,-1.1097124814987183,10.521319389343262
1689018018912177024,-0.2173139452934265,-0.03195793181657791,0.25672873854637146,-0.9014168977737427,-1.0031704902648926,10.384849548339844
1689018018922177024,-0.19387812912464142,-0.009587380103766918,0.2641855776309967,-0.9445125460624695,-0.812831461429596,10.243592262268066
1689018018931177024,-0.16298545897006989,0.00532632227987051,0.25353294610977173,-0.912190854549408,-0.6177040338516235,10.066420555114746
1689018018942177024,-0.13315805792808533,0.012783173471689224,0.23435817658901215,-0.8619126081466675,-0.4920084476470947,9.927556991577148
1689018018950177024,-0.1065264418721199,0.015978965908288956,0.21198762953281403,-0.8248024582862854,-0.42616790533065796,9.798270225524902
1689018018960177024,-0.08735168725252151,0.014913702383637428,0.185356006026268,-0.7924807667732239,-0.39863458275794983,9.648633003234863
1689018018970177024,-0.07776430249214172,0.008522115647792816,0.15446333587169647,-0.7625532150268555,-0.3974374830722809,9.532513618469238
1689018018980177024,-0.07669904083013535,-0.001065264455974102,0.12463594228029251,-0.7182605266571045,-0.43335050344467163,9.397241592407227
1689018018989177024,-0.08202536404132843,-0.012783173471689224,0.10120011866092682,-0.6332663297653198,-0.4728548228740692,9.205705642700195
1689018018998177024,-0.09054747968912125,-0.024501081556081772,0.09054747968912125,-0.49799394607543945,-0.5243301391601562,8.961496353149414
1689018019008177024,-0.10120011866092682,-0.03195793181657791,0.09161274135112762,-0.3471592366695404,-0.591367781162262,8.69095230102539
1689018019018177024,-0.11185276508331299,-0.037284255027770996,0.1022653877735138,-0.2214636504650116,-0.6440402269363403,8.441954612731934
1689018019028177024,-0.11930961906909943,-0.037284255027770996,0.12250541150569916,-0.1149216815829277,-0.6931213736534119,8.192957878112793
1689018019037177024,-0.11930961906909943,-0.034088462591171265,0.14487595856189728,-0.040701426565647125,-0.7266402244567871,7.949946403503418
1689018019046177024,-0.10759171098470688,-0.02876213937997818,0.16831177473068237,-0.002394201699644327,-0.7098807692527771,7.729680061340332
1689018019056177024,-0.08628641813993454,-0.024501081556081772,0.185356006026268,0.031124621629714966,-0.6428431272506714,7.542932510375977
1689018019066177024,-0.052197955548763275,-0.020240023732185364,0.1949433982372284,0.05746084079146385,-0.5386953949928284,7.417236804962158
1689018019076177024,-0.009587380103766918,-0.01810949482023716,0.19281286001205444,0.08259996026754379,-0.40940847992897034,7.346607685089111
1689018019085177024,0.037284255027770996,-0.015978965908288956,0.185356006026268,0.11133037507534027,-0.27892449498176575,7.349001884460449
1689018019094177024,0.08202536404132843,-0.012783173471689224,0.17044231295585632,0.10175357013940811,-0.15562310814857483,7.439981460571289
1689018019104177024,0.12144014239311218,-0.007456851191818714,0.1533980816602707,0.043095629662275314,-0.038307227194309235,7.592013359069824
1689018019114177024,0.15126754343509674,0.001065264455974102,0.1395496428012848,-0.017956512048840523,0.07062894850969315,7.773972988128662
1689018019123177024,0.1757686287164688,0.006391586735844612,0.1299622654914856,-0.06703764945268631,0.1735796183347702,7.94635534286499
1689018019133177024,0.1949433982372284,0.007456851191818714,0.11930961906909943,-0.11013327538967133,0.2621650695800781,8.097189903259277
1689018019143177024,0.2130528837442398,-0.001065264455974102,0.10013485699892044,-0.15442600846290588,0.3411737382411957,8.281543731689453
1689018019152177024,0.22903186082839966,-0.014913702383637428,0.07350324839353561,-0.1999158412218094,0.4129997789859772,8.540117263793945
1689018019162177024,0.24288028478622437,-0.037284255027770996,0.04261057823896408,-0.26815059781074524,0.48602294921875,8.857349395751953
1689018019171177024,0.2545982003211975,-0.0649811327457428,0.01065264455974102,-0.34596213698387146,0.5650315880775452,9.160215377807617
1689018019181177024,0.2652508318424225,-0.09587380290031433,-0.019174760207533836,-0.4034229815006256,0.6536170244216919,9.427168846130371
1689018019190177024,0.2727077007293701,-0.12889699637889862,-0.04367584362626076,-0.4429273009300232,0.7254431247711182,9.696516990661621
1689018019200177024,0.27164241671562195,-0.1619201898574829,-0.06285060197114944,-0.45010989904403687,0.7805097699165344,9.945513725280762
1689018019210177024,0.2631203234195709,-0.19174760580062866,-0.07456851005554199,-0.42377370595932007,0.8379705548286438,10.163386344909668
1689018019219177024,0.24927188456058502,-0.2183792144060135,-0.08202536404132843,-0.3998316824436188,0.8990226984024048,10.352527618408203
1689018019229177024,0.23329290747642517,-0.23968449234962463,-0.08415588736534119,-0.3663128614425659,0.9397241473197937,10.51174259185791
1689018019238177024,0.2173139452934265,-0.25672873854637146,-0.08522115647792816,-0.30526071786880493,0.93254154920578,10.66018295288086
1689018019248177024,0.20026971399784088,-0.2737729549407959,-0.09161274135112762,-0.22505494952201843,0.8978255987167358,10.81820011138916
1689018019258177024,0.18216021358966827,-0.29507824778556824,-0.10013485699892044,-0.13527239859104156,0.8547300100326538,10.990582466125488
1689018019267177024,0.16298545897006989,-0.3153182864189148,-0.10972223430871964,-0.05147533491253853,0.8068459630012512,11.15697956085205
1689018019277177024,0.13848437368869781,-0.333427757024765,-0.11930961906909943,0.016759412363171577,0.7445967197418213,11.312602996826172
1689018019287177024,0.10759171098470688,-0.3440804183483124,-0.13102751970291138,0.06823474913835526,0.6488286256790161,11.473014831542969
1689018019296177024,0.07030745595693588,-0.3483414649963379,-0.1438107043504715,0.1149216815829277,0.5398924946784973,11.656170845031738
1689018019306177024,0.030892668291926384,-0.3430151343345642,-0.15233281254768372,0.15322890877723694,0.43694180250167847,11.805808067321777
1689018019315177024,-0.00532632227987051,-0.3291667103767395,-0.14487595856189728,0.17238251864910126,0.40462008118629456,11.890802383422852
1689018019325177024,-0.030892668291926384,-0.3067961633205414,-0.11398329585790634,0.19153612852096558,0.4596867263317108,11.950657844543457
1689018019335177024,-0.04367584362626076,-0.2822950780391693,-0.06711165606975555,0.2609679698944092,0.5159504413604736,12.021286964416504
1689018019345177024,-0.05006742849946022,-0.26205503940582275,-0.03515372797846794,0.43335050344467163,0.5111620426177979,12.157755851745605
1689018019353177024,-0.05752427875995636,-0.2556634545326233,-0.049002163112163544,0.6919242739677429,0.43095630407333374,12.376825332641602
1689018019363177024,-0.07669904083013535,-0.25672873854637146,-0.09800432622432709,0.9361328482627869,0.31603461503982544,12.574347496032715
1689018019373177024,-0.10439591109752655,-0.2545982003211975,-0.1619201898574829,1.1180921792984009,0.1759738177061081,12.60547161102295
1689018019383177024,-0.13528858125209808,-0.24501082301139832,-0.22903186082839966,1.2437877655029297,-0.02513911761343479,12.4354829788208
1689018019393177024,-0.16405072808265686,-0.22583605349063873,-0.287621408700943,1.2473790645599365,-0.33518823981285095,12.146982192993164
1689018019402177024,-0.18748654425144196,-0.19600865244865417,-0.3302319645881653,1.2294225692749023,-0.6368576288223267,11.66814136505127
1689018019411177024,-0.19387812912464142,-0.15446333587169647,-0.3440804183483124,1.2461819648742676,-0.7936778664588928,11.075576782226562
1689018019421177024,-0.1768338978290558,-0.10546118021011353,-0.324905663728714,1.258152961730957,-0.8523358106613159,10.553641319274902
1689018019431177024,-0.13848437368869781,-0.05326322093605995,-0.2790992856025696,1.314416766166687,-0.833182156085968,10.099939346313477
1689018019440177024,-0.08628641813993454,0.001065264455974102,-0.21944446861743927,1.3994108438491821,-0.750582218170166,9.84495735168457
1689018019450177024,-0.026631610468029976,0.0511326938867569,-0.15978966653347015,1.436521053314209,-0.6404489278793335,9.837774276733398
1689018019459177024,0.023435818031430244,0.09480853378772736,-0.11185276508331299,1.4065934419631958,-0.5674257874488831,9.97184944152832
1689018019469177024,0.05006742849946022,0.12676647305488586,-0.09374327212572098,1.3730746507644653,-0.5506663918495178,10.125079154968262
1689018019479177024,0.05752427875995636,0.14487595856189728,-0.10013485699892044,1.3407529592514038,-0.5147533416748047,10.20648193359375
1689018019488177024,0.05006742849946022,0.148071750998497,-0.1299622654914856,1.2892775535583496,-0.45010989904403687,10.147823333740234
1689018019498177024,0.03515372797846794,0.14594122767448425,-0.18216021358966827,1.2318167686462402,-0.3974374830722809,9.952695846557617
1689018019507177024,0.012783173471689224,0.1395496428012848,-0.24181503057479858,1.1887211799621582,-0.365115761756897,9.712079048156738
1689018019517177024,-0.014913702383637428,0.12889699637889862,-0.2972087860107422,1.158793568611145,-0.35673603415489197,9.463082313537598
1689018019526177024,-0.04580637067556381,0.11291802674531937,-0.33662354946136475,1.1025298833847046,-0.34835633635520935,9.21288776397705
1689018019536177024,-0.07776430249214172,0.09161274135112762,-0.36005938053131104,0.9971849918365479,-0.33758243918418884,8.995016098022461
1689018019546177024,-0.10865697264671326,0.06817692518234253,-0.370712012052536,0.8894459009170532,-0.33997663855552673,8.825027465820312
1689018019555177024,-0.13315805792808533,0.03941478580236435,-0.3760383427143097,0.7769184112548828,-0.32441431283950806,8.674192428588867
1689018019565177024,-0.14594122767448425,0.014913702383637428,-0.36858150362968445,0.6584054827690125,-0.29448679089546204,8.465896606445312
1689018019574177024,-0.15020228922367096,-0.008522115647792816,-0.35473304986953735,0.5315127968788147,-0.264559268951416,8.256404876708984
1689018019584177024,-0.14274543523788452,-0.02130528911948204,-0.33555829524993896,0.4034229815006256,-0.23343466222286224,8.10437297821045
1689018019593177024,-0.12463594228029251,-0.026631610468029976,-0.31318774819374084,0.3196259140968323,-0.21188685297966003,7.971494197845459
1689018019603177024,-0.09906959533691406,-0.027696875855326653,-0.2886866629123688,0.28131869435310364,-0.18914192914962769,7.869740962982178
1689018019613177024,-0.06285060197114944,-0.02556634694337845,-0.260989785194397,0.2849099934101105,-0.17717091739177704,7.773972988128662
1689018019622177024,-0.020240023732185364,-0.023435818031430244,-0.23116238415241241,0.3208230137825012,-0.16639702022075653,7.715314865112305
1689018019632177024,0.027696875855326653,-0.023435818031430244,-0.19600865244865417,0.35913026332855225,-0.14604629576206207,7.700949668884277
1689018019641177024,0.07989483326673508,-0.023435818031430244,-0.1619201898574829,0.38546645641326904,-0.104147769510746,7.685387134552002
1689018019651177024,0.13528858125209808,-0.022370552644133568,-0.13315805792808533,0.4082113802433014,-0.035913024097681046,7.711723327636719
1689018019661177024,0.19174760580062866,-0.024501081556081772,-0.10865697264671326,0.4429273009300232,0.014365210197865963,7.789535045623779
1689018019670177024,0.2514024078845978,-0.026631610468029976,-0.08415588736534119,0.49559974670410156,0.05147533491253853,7.85537576675415
1689018019680177024,0.31318774819374084,-0.02876213937997818,-0.058589544147253036,0.5135562419891357,0.0933738648891449,7.929595947265625
1689018019689177024,0.36964675784111023,-0.02876213937997818,-0.04048004746437073,0.4800374209880829,0.15562310814857483,8.08402156829834
1689018019700177024,0.4165183901786804,-0.027696875855326653,-0.027696875855326653,0.3842693567276001,0.264559268951416,8.322244644165039
1689018019709177024,0.44847631454467773,-0.02556634694337845,-0.02556634694337845,0.2214636504650116,0.43095630407333374,8.672995567321777
1689018019718177024,0.46658581495285034,-0.02556634694337845,-0.03621898964047432,0.015562310814857483,0.5865793824195862,9.062053680419922
1689018019728177024,0.4676510989665985,-0.023435818031430244,-0.05645901337265968,-0.13168108463287354,0.7589619159698486,9.534908294677734
1689018019738177024,0.4506068527698517,-0.013848437927663326,-0.07137271761894226,-0.1304839849472046,0.933738648891449,9.944316864013672
1689018019748177024,0.41971418261528015,-0.003195793367922306,-0.08202536404132843,-0.04908113554120064,1.0127472877502441,10.15141487121582
1689018019757177024,0.3802993893623352,0.006391586735844612,-0.07137271761894226,0.07062894850969315,1.0091559886932373,10.301053047180176
1689018019766177024,0.3302319645881653,0.015978965908288956,-0.03515372797846794,0.22266075015068054,0.970848798751831,10.400411605834961
1689018019776177024,0.2780340313911438,0.02556634694337845,0.024501081556081772,0.3734954595565796,0.9493009448051453,10.488997459411621
1689018019786177024,0.2269013226032257,0.03834952041506767,0.09693906456232071,0.5135562419891357,0.9457096457481384,10.576385498046875
1689018019795177024,0.1810949593782425,0.05752427875995636,0.16937704384326935,0.6536170244216919,0.9528922438621521,10.619481086730957
1689018019805177024,0.1438107043504715,0.08202536404132843,0.23755396902561188,0.7984662652015686,0.9816226959228516,10.680533409118652
1689018019814177024,0.11717908829450607,0.10972223430871964,0.2929477095603943,0.9493009448051453,0.9911994934082031,10.795454978942871
1689018019824177024,0.1022653877735138,0.1395496428012848,0.3291667103767395,1.0857704877853394,0.9145850539207458,10.900799751281738
1689018019834177024,0.09161274135112762,0.16831177473068237,0.3483414649963379,1.1875240802764893,0.7996633648872375,11.071985244750977
1689018019843177024,0.08096009492874146,0.19281286001205444,0.34514567255973816,1.235408067703247,0.6991068720817566,11.294646263122559
1689018019853177024,0.06817692518234253,0.21198762953281403,0.324905663728714,1.217451572418213,0.6464344263076782,11.475408554077148
1689018019862177024,0.058589544147253036,0.2269013226032257,0.29827404022216797,1.1468225717544556,0.6596025824546814,11.63222885131836
1689018019872177024,0.05432848632335663,0.23755396902561188,0.2695119082927704,1.0809820890426636,0.6883329749107361,11.798625946044922
1689018019882177024,0.047936901450157166,0.23329290747642517,0.22370553016662598,1.0618284940719604,0.6859387755393982,12.044031143188477
1689018019891177024,0.02556634694337845,0.21198762953281403,0.16298545897006989,1.0247182846069336,0.6332663297653198,12.463016510009766
1689018019901177024,-0.024501081556081772,0.17789916694164276,0.09800432622432709,0.910993754863739,0.4752490222454071,12.994529724121094
1689018019910177024,-0.10439591109752655,0.14061491191387177,0.05006742849946022,0.7685387134552002,0.20231004059314728,13.419500350952148
1689018019920177024,-0.20559602975845337,0.1065264418721199,0.02130528911948204,0.606930136680603,-0.08140285313129425,13.585897445678711
1689018019929177024,-0.30892667174339294,0.08628641813993454,0.00532632227987051,0.39384618401527405,-0.2908954918384552,13.503297805786133
1689018019937548076,-0.39734363555908203,0.0788295716047287,-0.004261057823896408,0.16759411990642548,-0.44412440061569214,13.237541198730469
1689018019947548076,-0.4601942300796509,0.08415588736534119,-0.001065264455974102,0.013168109580874443,-0.5614402890205383,12.830526351928711
1689018019956548076,-0.4974784851074219,0.1022653877735138,0.017044231295585632,-0.05147533491253853,-0.6643909811973572,12.391190528869629
1689018019966548076,-0.5113269090652466,0.12676647305488586,0.03941478580236435,-0.05985504016280174,-0.7422025203704834,11.960234642028809
1689018019975548076,-0.5070658922195435,0.15233281254768372,0.06285060197114944,-0.035913024097681046,-0.8092401623725891,11.657367706298828
1689018019985548076,-0.49002164602279663,0.1757686287164688,0.08309062570333481,-0.014365210197865963,-0.8415618538856506,11.4849853515625
1689018019995548076,-0.46552056074142456,0.19600865244865417,0.09587380290031433,0.008379706181585789,-0.8690952062606812,11.285069465637207
1689018020004548076,-0.43782368302345276,0.21411815285682678,0.10013485699892044,0.004788403399288654,-0.933738648891449,11.061211585998535
1689018020014548076,-0.4122573435306549,0.23435817658901215,0.10120011866092682,-0.11971008032560349,-0.9660603404045105,10.872069358825684
1689018020023548076,-0.39095205068588257,0.25353294610977173,0.09693906456232071,-0.3208230137825012,-0.9959878921508789,10.705672264099121
1689018020033548076,-0.37390780448913574,0.2737729549407959,0.0884169489145279,-0.4704606235027313,-1.0330979824066162,10.450690269470215
1689018020042548076,-0.35899412631988525,0.296143501996994,0.08309062570333481,-0.5805938839912415,-1.0618284940719604,10.182539939880371
1689018020053548076,-0.3430151343345642,0.32170987129211426,0.08415588736534119,-0.6619967818260193,-1.0809820890426636,9.93474006652832
1689018020062548076,-0.32597091794013977,0.3440804183483124,0.092678003013134,-0.6931213736534119,-1.072602391242981,9.66658878326416
1689018020071548076,-0.30892667174339294,0.362189918756485,0.09906959533691406,-0.711077868938446,-1.039083480834961,9.431957244873047
1689018020081548076,-0.2908172011375427,0.3749730885028839,0.10013485699892044,-0.7158662676811218,-1.0067617893218994,9.208099365234375
1689018020090548076,-0.27057716250419617,0.3813646733760834,0.1022653877735138,-0.7003039717674255,-0.9828197956085205,9.012971878051758
1689018020101548076,-0.25353294610977173,0.38242992758750916,0.10759171098470688,-0.6667851805686951,-0.9888052940368652,8.84178638458252
1689018020110548076,-0.23861923813819885,0.3760383427143097,0.1161138266324997,-0.6117185354232788,-1.0043675899505615,8.653841972351074
1689018020119548076,-0.22370553016662598,0.36325517296791077,0.13315805792808533,-0.5434837937355042,-1.0043675899505615,8.447940826416016
1689018020129548076,-0.21198762953281403,0.3472762107849121,0.15020228922367096,-0.4908113479614258,-1.0115501880645752,8.276755332946777
1689018020139548076,-0.20133498311042786,0.324905663728714,0.15659387409687042,-0.4620809257030487,-1.0187327861785889,8.13789176940918
1689018020148548076,-0.1896170675754547,0.296143501996994,0.1533980816602707,-0.4381389021873474,-1.0295066833496094,8.009801864624023
1689018020158548076,-0.1768338978290558,0.2631203234195709,0.14594122767448425,-0.4489127993583679,-1.0127472877502441,7.924807548522949
1689018020167548076,-0.16085493564605713,0.22583605349063873,0.13741911947727203,-0.47165772318840027,-0.9504980444908142,7.8098859786987305
1689018020177548076,-0.13741911947727203,0.18855179846286774,0.1299622654914856,-0.4692635238170624,-0.8738836050033569,7.696161270141602
1689018020186548076,-0.10865697264671326,0.14913702011108398,0.12144014239311218,-0.4728548228740692,-0.7876923680305481,7.621941089630127
1689018020196548076,-0.07776430249214172,0.11185276508331299,0.11398329585790634,-0.48482584953308105,-0.6979097723960876,7.578845500946045
1689018020206548076,-0.04580637067556381,0.07776430249214172,0.10972223430871964,-0.4920084476470947,-0.606930136680603,7.605181694030762
1689018020215548076,-0.017044231295585632,0.04687163606286049,0.11185276508331299,-0.5135562419891357,-0.5267243385314941,7.722497463226318
1689018020225548076,0.004261057823896408,0.019174760207533836,0.11717908829450607,-0.5542576909065247,-0.4692635238170624,7.898471355438232
1689018020235548076,0.017044231295585632,-0.007456851191818714,0.11930961906909943,-0.6320692300796509,-0.42856210470199585,8.123526573181152
1689018020244548076,0.022370552644133568,-0.037284255027770996,0.1203748807311058,-0.729034423828125,-0.39863458275794983,8.400056838989258
1689018020254548076,0.020240023732185364,-0.07350324839353561,0.12250541150569916,-0.788889467716217,-0.4058171808719635,8.649053573608398
1689018020263548076,0.014913702383637428,-0.11291802674531937,0.13102751970291138,-0.8451532125473022,-0.4321534037590027,8.833407402038574
1689018020273548076,0.008522115647792816,-0.15020228922367096,0.14700649678707123,-0.9050082564353943,-0.447715699672699,8.967482566833496
1689018020283548076,0.00532632227987051,-0.1810949593782425,0.16511598229408264,-0.9493009448051453,-0.46806642413139343,9.062053680419922
1689018020292548076,0.006391586735844612,-0.20240023732185364,0.18642127513885498,-0.9780313968658447,-0.47165772318840027,9.155426979064941
1689018020302548076,0.01065264455974102,-0.21518342196941376,0.2034655064344406,-0.973242998123169,-0.4537012279033661,9.282320022583008
1689018020311548076,0.017044231295585632,-0.2183792144060135,0.22157500684261322,-0.9397241473197937,-0.40701428055763245,9.405621528625488
1689018020321548076,0.026631610468029976,-0.21198762953281403,0.24501082301139832,-0.9002197980880737,-0.35075053572654724,9.503783226013184
1689018020330548076,0.03834952041506767,-0.19387812912464142,0.2737729549407959,-0.8571242094039917,-0.2992752194404602,9.624691009521484
1689018020340548076,0.052197955548763275,-0.1715075671672821,0.2972087860107422,-0.8020575642585754,-0.23582886159420013,9.765948295593262
1689018020350548076,0.07030745595693588,-0.14594122767448425,0.3099919557571411,-0.7338228225708008,-0.15442600846290588,9.939528465270996
1689018020359548076,0.08948221057653427,-0.12144014239311218,0.3099919557571411,-0.6619967818260193,-0.05746084079146385,10.14902114868164
1689018020369548076,0.10865697264671326,-0.10013485699892044,0.3004045784473419,-0.5949591398239136,0.021547814831137657,10.38844108581543
1689018020378548076,0.12250541150569916,-0.08522115647792816,0.2790992856025696,-0.5171475410461426,0.061052143573760986,10.680533409118652
1689018020388548076,0.12783172726631165,-0.0788295716047287,0.250337153673172,-0.4357447028160095,0.06703764945268631,10.99776554107666
1689018020398548076,0.12357067316770554,-0.07776430249214172,0.2183792144060135,-0.36750996112823486,0.033518824726343155,11.297040939331055
1689018020408548076,0.10972223430871964,-0.08096009492874146,0.18429075181484222,-0.295683890581131,-0.017956512048840523,11.555614471435547
1689018020417548076,0.09161274135112762,-0.08415588736534119,0.15659387409687042,-0.21667525172233582,-0.05267243832349777,11.731588363647461
1689018020426548076,0.07669904083013535,-0.08522115647792816,0.14487595856189728,-0.14006079733371735,-0.031124621629714966,11.81299114227295
1689018020436548076,0.06285060197114944,-0.08415588736534119,0.14594122767448425,-0.02513911761343479,0.013168109580874443,11.875240325927734
1689018020446548076,0.044741105288267136,-0.09054747968912125,0.13209278881549835,0.14724339544773102,-0.005985504016280174,12.035652160644531
1689018020456548076,0.013848437927663326,-0.11185276508331299,0.09480853378772736,0.3064578175544739,-0.11971008032560349,12.304999351501465
1689018020465548076,-0.03302319720387459,-0.13848437368869781,0.041545312851667404,0.39863458275794983,-0.2717418968677521,12.565967559814453
1689018020475548076,-0.09374327212572098,-0.16405072808265686,-0.015978965908288956,0.47165772318840027,-0.4034229815006256,12.688071250915527
1689018020484548076,-0.15978966653347015,-0.17789916694164276,-0.06924218684434891,0.5638344883918762,-0.5159504413604736,12.649764060974121
1689018020494548076,-0.22583605349063873,-0.1768338978290558,-0.1161138266324997,0.6560112833976746,-0.6452373266220093,12.519280433654785
1689018020503548076,-0.2822950780391693,-0.1619201898574829,-0.14913702011108398,0.7062894701957703,-0.8008604645729065,12.328941345214844
1689018020513548076,-0.324905663728714,-0.13528858125209808,-0.15446333587169647,0.6931213736534119,-0.9768342971801758,12.058396339416504
1689018020522548076,-0.3472762107849121,-0.10013485699892044,-0.1395496428012848,0.7697358131408691,-1.1264718770980835,11.627440452575684
1689018020532548076,-0.3430151343345642,-0.05752427875995636,-0.10972223430871964,0.9289502501487732,-1.1683703660964966,11.128249168395996
1689018020542548076,-0.3153182864189148,-0.006391586735844612,-0.06391586363315582,1.071405291557312,-1.1121066808700562,10.81580638885498
1689018020551548076,-0.2727077007293701,0.04261057823896408,-0.011717909015715122,1.1743558645248413,-1.0773907899856567,10.609904289245605
1689018020561548076,-0.21944446861743927,0.09374327212572098,0.02130528911948204,1.2557587623596191,-0.9959878921508789,10.587160110473633
1689018020570548076,-0.15659387409687042,0.14061491191387177,0.034088462591171265,1.3778630495071411,-0.8188169598579407,10.78228759765625
1689018020580548076,-0.10013485699892044,0.17789916694164276,0.02130528911948204,1.4963760375976562,-0.7062894701957703,10.947486877441406
1689018020590548076,-0.05645901337265968,0.2045307755470276,-0.019174760207533836,1.6316484212875366,-0.6703764796257019,11.09113883972168
1689018020599548076,-0.02876213937997818,0.2183792144060135,-0.09374327212572098,1.7513585090637207,-0.7541735172271729,11.201272010803223
1689018020609548076,-0.01810949482023716,0.21198762953281403,-0.19813919067382812,1.768117904663086,-0.9876081943511963,11.261127471923828
1689018020618548076,-0.022370552644133568,0.18429075181484222,-0.3206445872783661,1.6795324087142944,-1.2198457717895508,11.257535934448242
1689018020629548076,-0.03195793181657791,0.14700649678707123,-0.4442152678966522,1.5981296300888062,-1.3275848627090454,11.113883972167969
1689018020638548076,-0.044741105288267136,0.1065264418721199,-0.5581985712051392,1.5634137392044067,-1.3239935636520386,10.854113578796387
1689018020647548076,-0.05965480953454971,0.07456851005554199,-0.6508765816688538,1.5263035297393799,-1.2473790645599365,10.532093048095703
1689018020657548076,-0.07563377171754837,0.0511326938867569,-0.7126619219779968,1.436521053314209,-1.1707645654678345,10.153809547424316
1689018020666548076,-0.09161274135112762,0.04367584362626076,-0.7371630072593689,1.2761094570159912,-1.1240776777267456,9.739612579345703
1689018020676548076,-0.11185276508331299,0.047936901450157166,-0.7233145236968994,1.0797849893569946,-1.0761936902999878,9.321824073791504
1689018020686548076,-0.13528858125209808,0.05645901337265968,-0.679638683795929,0.9205705523490906,-1.0474631786346436,8.90762710571289
1689018020695548076,-0.15233281254768372,0.06391586363315582,-0.621049165725708,0.8104372620582581,-1.0402805805206299,8.51138687133789
1689018020705548076,-0.15659387409687042,0.0649811327457428,-0.5571333169937134,0.7003039717674255,-1.016338586807251,8.14028549194336
1689018020714548076,-0.14913702011108398,0.06285060197114944,-0.49854376912117004,0.6021417379379272,-0.9660603404045105,7.807491779327393
1689018020724548076,-0.12463594228029251,0.05645901337265968,-0.445280522108078,0.5398924946784973,-0.9002197980880737,7.554903507232666
1689018020734548076,-0.08628641813993454,0.04687163606286049,-0.40160468220710754,0.4944026470184326,-0.834379255771637,7.352593421936035
1689018020743548076,-0.04048004746437073,0.03941478580236435,-0.3675162196159363,0.43095630407333374,-0.7553706169128418,7.196969985961914
1689018020753548076,0.009587380103766918,0.034088462591171265,-0.3440804183483124,0.34596213698387146,-0.6476315259933472,7.0988078117370605
1689018020763548076,0.05965480953454971,0.02876213937997818,-0.3344930410385132,0.2585737705230713,-0.5219359397888184,7.037755966186523
1689018020772548076,0.11078750342130661,0.02130528911948204,-0.3344930410385132,0.20709843933582306,-0.3842693567276001,7.01979923248291
1689018020781548076,0.16085493564605713,0.01065264455974102,-0.34088462591171265,0.1735796183347702,-0.25498247146606445,7.084442615509033
1689018020791548076,0.20985709130764008,-0.006391586735844612,-0.3526025414466858,0.12689268589019775,-0.15442600846290588,7.1885905265808105
1689018020801548076,0.25672873854637146,-0.024501081556081772,-0.3675162196159363,0.090979665517807,-0.09935937076807022,7.299921035766602
1689018020811548076,0.3004045784473419,-0.03621898964047432,-0.38242992758750916,0.07781155407428741,-0.05386953800916672,7.41603946685791
1689018020820548076,0.3419498801231384,-0.03941478580236435,-0.3930825889110565,0.08858545869588852,0.0011971008498221636,7.560888767242432
1689018020829548076,0.3760383427143097,-0.034088462591171265,-0.399474173784256,0.0933738648891449,0.06224924325942993,7.754819393157959
1689018020839548076,0.4037352204322815,-0.02556634694337845,-0.40053942799568176,0.05746084079146385,0.1364694982767105,7.977479934692383
1689018020849548076,0.41971418261528015,-0.013848437927663326,-0.3930825889110565,-0.016759412363171577,0.2106897532939911,8.271966934204102
1689018020858548076,0.42504051327705383,-0.003195793367922306,-0.3771035969257355,-0.11013327538967133,0.2825157940387726,8.607154846191406
1689018020868548076,0.4175836443901062,0.006391586735844612,-0.3515372574329376,-0.18555063009262085,0.31842881441116333,8.914810180664062
1689018020877548076,0.39734363555908203,0.013848437927663326,-0.32170987129211426,-0.24420857429504395,0.3280056416988373,9.26795482635498
1689018020887548076,0.3664509654045105,0.019174760207533836,-0.2918824553489685,-0.2825157940387726,0.3423708379268646,9.624691009521484
1689018020897548076,0.3302319645881653,0.026631610468029976,-0.258859246969223,-0.30526071786880493,0.3579331338405609,9.88086986541748
1689018020906548076,0.28975191712379456,0.03941478580236435,-0.21624867618083954,-0.3064578175544739,0.3734954595565796,10.073603630065918
1689018020916548076,0.24927188456058502,0.05432848632335663,-0.16831177473068237,-0.2777273952960968,0.395043283700943,10.273519515991211
1689018020925548076,0.21198762953281403,0.06817692518234253,-0.11824434995651245,-0.2801215946674347,0.4297592043876648,10.538078308105469
1689018020935548076,0.1810949593782425,0.0788295716047287,-0.06711165606975555,-0.32680851221084595,0.43694180250167847,10.833762168884277
1689018020944548076,0.15126754343509674,0.08202536404132843,-0.02876213937997818,-0.3818751573562622,0.4010287821292877,11.17852783203125
1689018020954548076,0.12250541150569916,0.07456851005554199,-0.008522115647792816,-0.44173020124435425,0.35075053572654724,11.602301597595215
1689018020964548076,0.09054747968912125,0.05752427875995636,-0.01065264455974102,-0.48722004890441895,0.264559268951416,12.014103889465332
1689018020973548076,0.05752427875995636,0.034088462591171265,-0.027696875855326653,-0.5135562419891357,0.15682020783424377,12.316970825195312
1689018020983548076,0.03195793181657791,0.008522115647792816,-0.049002163112163544,-0.5195417404174805,0.08259996026754379,12.4785795211792
