t,gx,gy,gz,ax,ay,az
1689018012789888006,-0.022370552644133568,0.13635385036468506,0.1576591432094574,-0.0347159244120121,-0.933738648891449,10.08198356628418
1689018012798888006,-0.026631610468029976,0.14274543523788452,0.1757686287164688,-0.07900865375995636,-0.9409212470054626,10.036493301391602
1689018012809888006,-0.027696875855326653,0.14594122767448425,0.1896170675754547,-0.181959331035614,-0.9373299479484558,9.988609313964844
1689018012818888006,-0.026631610468029976,0.15020228922367096,0.19174760580062866,-0.31842881441116333,-0.9074024558067322,9.964667320251465
1689018012827888006,-0.023435818031430244,0.15446333587169647,0.18429075181484222,-0.46088382601737976,-0.8583213090896606,9.953893661499023
1689018012837888006,-0.020240023732185364,0.15659387409687042,0.1672465205192566,-0.5674257874488831,-0.8236053586006165,9.923965454101562
1689018012846888006,-0.015978965908288956,0.1576591432094574,0.14487595856189728,-0.6488286256790161,-0.7960720658302307,9.90122127532959
1689018012856888006,-0.012783173471689224,0.15233281254768372,0.11717908829450607,-0.7074865698814392,-0.7960720658302307,9.90481185913086
1689018012865888006,-0.011717909015715122,0.1438107043504715,0.08628641813993454,-0.7541735172271729,-0.8259995579719543,9.929951667785645
1689018012876888006,-0.008522115647792816,0.1342233121395111,0.05965480953454971,-0.7841010689735413,-0.8319850564002991,9.933542251586914
1689018012885888006,-0.006391586735844612,0.12463594228029251,0.037284255027770996,-0.7817068696022034,-0.7936778664588928,9.908403396606445
1689018012894888006,-0.002130528911948204,0.1161138266324997,0.014913702383637428,-0.7326257228851318,-0.750582218170166,9.916783332824707
1689018012904888006,0.0,0.10013485699892044,0.0,-0.6404489278793335,-0.7422025203704834,9.976638793945312
1689018012913888006,-0.001065264455974102,0.0788295716047287,-0.004261057823896408,-0.5638344883918762,-0.729034423828125,10.005369186401367
1689018012923888006,-0.001065264455974102,0.05432848632335663,-0.004261057823896408,-0.5279214382171631,-0.6919242739677429,9.99100399017334
1689018012933888006,0.003195793367922306,0.030892668291926384,-0.009587380103766918,-0.5374982953071594,-0.6404489278793335,9.965864181518555
1689018012942888006,0.012783173471689224,0.009587380103766918,-0.012783173471689224,-0.5039794445037842,-0.6392518281936646,9.921571731567383
1689018012951888006,0.024501081556081772,-0.013848437927663326,-0.009587380103766918,-0.43694180250167847,-0.6835445761680603,9.861716270446777
1689018012961888006,0.03834952041506767,-0.03515372797846794,-0.009587380103766918,-0.44173020124435425,-0.6799532771110535,9.84735107421875
1689018012971888006,0.0511326938867569,-0.055393751710653305,-0.01065264455974102,-0.4728548228740692,-0.6584054827690125,9.865307807922363
1689018012980888006,0.06178533658385277,-0.07350324839353561,-0.01810949482023716,-0.49799394607543945,-0.6655880808830261,9.870096206665039
1689018012990888006,0.06924218684434891,-0.08735168725252151,-0.02876213937997818,-0.5183446407318115,-0.6787561774253845,9.866504669189453
1689018013000888006,0.07350324839353561,-0.09906959533691406,-0.03515372797846794,-0.5279214382171631,-0.6931213736534119,9.84495735168457
1689018013009888006,0.07456851005554199,-0.10759171098470688,-0.03834952041506767,-0.5327098965644836,-0.7194576263427734,9.81263542175293
1689018013019888006,0.07456851005554199,-0.11504855751991272,-0.04261057823896408,-0.547075092792511,-0.7481880187988281,9.815030097961426
1689018013028888006,0.07350324839353561,-0.12144014239311218,-0.04261057823896408,-0.569819986820221,-0.7613561153411865,9.809043884277344
1689018013038888006,0.07456851005554199,-0.1257012039422989,-0.044741105288267136,-0.5805938839912415,-0.7697358131408691,9.771934509277344
1689018013047888006,0.07456851005554199,-0.12783172726631165,-0.04687163606286049,-0.5817909836769104,-0.7673416137695312,9.75517463684082
1689018013057888006,0.07456851005554199,-0.13315805792808533,-0.052197955548763275,-0.6057330369949341,-0.7625532150268555,9.750386238098145
1689018013067888006,0.07137271761894226,-0.13741911947727203,-0.05965480953454971,-0.6500257253646851,-0.7637503147125244,9.746794700622559
1689018013076888006,0.0649811327457428,-0.14061491191387177,-0.06604639440774918,-0.6763619780540466,-0.7565677165985107,9.734824180603027
1689018013086888006,0.05752427875995636,-0.14168016612529755,-0.06924218684434891,-0.689530074596405,-0.7481880187988281,9.701305389404297
1689018013095888006,0.05006742849946022,-0.14061491191387177,-0.07137271761894226,-0.7038952708244324,-0.7445967197418213,9.672574996948242
1689018013105888006,0.04367584362626076,-0.13848437368869781,-0.07030745595693588,-0.7146691679954529,-0.7338228225708008,9.66299819946289
1689018013115888006,0.037284255027770996,-0.1342233121395111,-0.06817692518234253,-0.7242460250854492,-0.7050923705101013,9.647435188293457
1689018013124888006,0.03195793181657791,-0.12889699637889862,-0.06711165606975555,-0.7398083209991455,-0.6667851805686951,9.647435188293457
1689018013134888006,0.027696875855326653,-0.12357067316770554,-0.06817692518234253,-0.7613561153411865,-0.6308721303939819,9.66299819946289
1689018013143888006,0.024501081556081772,-0.11824434995651245,-0.07030745595693588,-0.7817068696022034,-0.6093243360519409,9.671377182006836
1689018013153888006,0.022370552644133568,-0.10972223430871964,-0.07137271761894226,-0.8080430626869202,-0.5961562395095825,9.68694019317627
1689018013163888006,0.023435818031430244,-0.09906959533691406,-0.07030745595693588,-0.8068459630012512,-0.5877764821052551,9.697713851928711
1689018013172888006,0.024501081556081772,-0.08628641813993454,-0.06711165606975555,-0.8020575642585754,-0.5734112858772278,9.714472770690918
1689018013182888006,0.024501081556081772,-0.07243797928094864,-0.06178533658385277,-0.8236053586006165,-0.5578489899635315,9.757569313049316
1689018013191888006,0.022370552644133568,-0.058589544147253036,-0.05752427875995636,-0.833182156085968,-0.5554547905921936,9.817423820495605
1689018013201888006,0.01810949482023716,-0.05006742849946022,-0.05645901337265968,-0.8259995579719543,-0.5578489899635315,9.883264541625977
1689018013211888006,0.013848437927663326,-0.04367584362626076,-0.05752427875995636,-0.812831461429596,-0.5746083855628967,9.947907447814941
1689018013220888006,0.007456851191818714,-0.03941478580236435,-0.06391586363315582,-0.7924807667732239,-0.6129156351089478,9.995792388916016
1689018013230888006,0.004261057823896408,-0.037284255027770996,-0.07243797928094864,-0.7529764175415039,-0.6488286256790161,10.031704902648926
1689018013239888006,0.0,-0.03621898964047432,-0.08522115647792816,-0.7062894701957703,-0.6859387755393982,10.056843757629395
1689018013249888006,-0.003195793367922306,-0.037284255027770996,-0.09800432622432709,-0.6811503767967224,-0.7230489253997803,10.075997352600098
1689018013258888006,-0.00532632227987051,-0.03834952041506767,-0.1065264418721199,-0.6607996821403503,-0.7661445140838623,10.078392028808594
1689018013268888006,-0.007456851191818714,-0.037284255027770996,-0.11078750342130661,-0.6248866319656372,-0.8008604645729065,10.078392028808594
1689018013278888006,-0.008522115647792816,-0.03621898964047432,-0.10865697264671326,-0.5865793824195862,-0.8283937573432922,10.092757225036621
1689018013287888006,-0.01065264455974102,-0.03515372797846794,-0.10439591109752655,-0.5590460896492004,-0.8523358106613159,10.102334022521973
1689018013297888006,-0.011717909015715122,-0.03195793181657791,-0.09906959533691406,-0.5374982953071594,-0.872686505317688,10.101137161254883
1689018013306888006,-0.011717909015715122,-0.029827404767274857,-0.09374327212572098,-0.5111620426177979,-0.9026139974594116,10.091560363769531
1689018013316888006,-0.011717909015715122,-0.026631610468029976,-0.08948221057653427,-0.4824316203594208,-0.9253589510917664,10.096348762512207
1689018013326888006,-0.01065264455974102,-0.024501081556081772,-0.08522115647792816,-0.44173020124435425,-0.9409212470054626,10.096348762512207
1689018013335888006,-0.008522115647792816,-0.022370552644133568,-0.08096009492874146,-0.4010287821292877,-0.9457096457481384,10.078392028808594
1689018013344888006,-0.002130528911948204,-0.019174760207533836,-0.07563377171754837,-0.38307225704193115,-0.9385270476341248,10.066420555114746
1689018013354888006,0.006391586735844612,-0.015978965908288956,-0.07243797928094864,-0.3687070608139038,-0.93254154920578,10.054450035095215
1689018013364888006,0.015978965908288956,-0.012783173471689224,-0.06711165606975555,-0.33279404044151306,-0.9385270476341248,10.02811336517334
1689018013373888006,0.026631610468029976,-0.01065264455974102,-0.06391586363315582,-0.28131869435310364,-0.9612719416618347,9.995792388916016
1689018013383888006,0.037284255027770996,-0.008522115647792816,-0.06178533658385277,-0.22505494952201843,-0.9840168952941895,9.96825885772705
1689018013393888006,0.047936901450157166,-0.008522115647792816,-0.05965480953454971,-0.1951274424791336,-0.9828197956085205,9.932345390319824
1689018013402888006,0.05965480953454971,-0.006391586735844612,-0.055393751710653305,-0.16160860657691956,-0.9804255962371826,9.90241813659668
1689018013412888006,0.07030745595693588,-0.004261057823896408,-0.0511326938867569,-0.12689268589019775,-0.9768342971801758,9.884461402893066
1689018013421888006,0.07989483326673508,-0.003195793367922306,-0.04580637067556381,-0.11372458189725876,-0.9672574996948242,9.848548889160156
1689018013431888006,0.08735168725252151,-0.003195793367922306,-0.04048004746437073,-0.09576806426048279,-0.9481038451194763,9.806650161743164
1689018013440888006,0.09161274135112762,-0.003195793367922306,-0.03515372797846794,-0.07541735470294952,-0.9145850539207458,9.793481826782227
1689018013450888006,0.09480853378772736,-0.006391586735844612,-0.03302319720387459,-0.06344634294509888,-0.8894459009170532,9.781511306762695
1689018013460888006,0.09480853378772736,-0.012783173471689224,-0.034088462591171265,-0.06703764945268631,-0.849941611289978,9.75278091430664
1689018013469888006,0.09374327212572098,-0.01810949482023716,-0.034088462591171265,-0.0586579404771328,-0.7924807667732239,9.736021041870117
1689018013479888006,0.09054747968912125,-0.026631610468029976,-0.03195793181657791,-0.043095629662275314,-0.730231523513794,9.72404956817627
1689018013488888006,0.08522115647792816,-0.03515372797846794,-0.029827404767274857,-0.04429272934794426,-0.6667851805686951,9.716867446899414
1689018013498888006,0.07989483326673508,-0.04367584362626076,-0.027696875855326653,-0.05386953800916672,-0.606930136680603,9.713275909423828
1689018013508888006,0.07243797928094864,-0.05326322093605995,-0.02876213937997818,-0.0454898327589035,-0.5578489899635315,9.718064308166504
1689018013517888006,0.06285060197114944,-0.06604639440774918,-0.03302319720387459,-0.020350713282823563,-0.5003881454467773,9.738415718078613
1689018013527888006,0.0511326938867569,-0.07989483326673508,-0.041545312851667404,-0.011971008032560349,-0.4453215003013611,9.764751434326172
1689018013536888006,0.04048004746437073,-0.09587380290031433,-0.05432848632335663,-0.019153613597154617,-0.40940847992897034,9.78989028930664
1689018013546888006,0.029827404767274857,-0.11185276508331299,-0.07030745595693588,-0.013168109580874443,-0.38546645641326904,9.793481826782227
1689018013556888006,0.02130528911948204,-0.1257012039422989,-0.08628641813993454,0.005985504016280174,-0.3770867586135864,9.757569313049316
1689018013565888006,0.015978965908288956,-0.13528858125209808,-0.10013485699892044,0.023942016065120697,-0.37229835987091064,9.708487510681152
1689018013575888006,0.011717909015715122,-0.14274543523788452,-0.11078750342130661,0.038307227194309235,-0.36750996112823486,9.68933391571045
1689018013584888006,0.009587380103766918,-0.148071750998497,-0.11824434995651245,0.035913024097681046,-0.34596213698387146,9.68813705444336
1689018013594888006,0.009587380103766918,-0.15020228922367096,-0.12144014239311218,0.015562310814857483,-0.325611412525177,9.670180320739746
1689018013604888006,0.01065264455974102,-0.14700649678707123,-0.1203748807311058,-0.017956512048840523,-0.31842881441116333,9.655815124511719
1689018013613888006,0.011717909015715122,-0.14274543523788452,-0.11717908829450607,-0.0586579404771328,-0.31603461503982544,9.66299819946289
1689018013622888006,0.011717909015715122,-0.13528858125209808,-0.11291802674531937,-0.09935937076807022,-0.31603461503982544,9.667786598205566
1689018013632888006,0.012783173471689224,-0.12783172726631165,-0.10546118021011353,-0.14245499670505524,-0.3172317147254944,9.671377182006836
1689018013641888006,0.012783173471689224,-0.11824434995651245,-0.09800432622432709,-0.16759411990642548,-0.3124433159828186,9.697713851928711
1689018013651888006,0.012783173471689224,-0.10865697264671326,-0.092678003013134,-0.17717091739177704,-0.31364041566848755,9.738415718078613
1689018013661888006,0.013848437927663326,-0.10013485699892044,-0.092678003013134,-0.21428105235099792,-0.3148375153541565,9.773131370544434
1689018013671888006,0.015978965908288956,-0.09054747968912125,-0.09587380290031433,-0.24899697303771973,-0.3064578175544739,9.81143856048584
1689018013680888006,0.015978965908288956,-0.0788295716047287,-0.1022653877735138,-0.264559268951416,-0.29807811975479126,9.84735107421875
1689018013689888006,0.017044231295585632,-0.06604639440774918,-0.11398329585790634,-0.30286651849746704,-0.2932896912097931,9.856927871704102
1689018013699888006,0.017044231295585632,-0.05326322093605995,-0.1257012039422989,-0.33039984107017517,-0.29448679089546204,9.854534149169922
1689018013709888006,0.015978965908288956,-0.037284255027770996,-0.13635385036468506,-0.3387795388698578,-0.29209259152412415,9.84376049041748
1689018013719888006,0.015978965908288956,-0.022370552644133568,-0.1438107043504715,-0.33758243918418884,-0.2908954918384552,9.823409080505371
1689018013728888006,0.014913702383637428,-0.007456851191818714,-0.14594122767448425,-0.31124621629714966,-0.2932896912097931,9.801861763000488
1689018013737888006,0.014913702383637428,0.008522115647792816,-0.1438107043504715,-0.27054479718208313,-0.2968810200691223,9.791088104248047
1689018013747888006,0.013848437927663326,0.023435818031430244,-0.1395496428012848,-0.24061726033687592,-0.3064578175544739,9.795876502990723
1689018013756888006,0.013848437927663326,0.03941478580236435,-0.13741911947727203,-0.2238578498363495,-0.31603461503982544,9.804255485534668
1689018013767888006,0.012783173471689224,0.055393751710653305,-0.13848437368869781,-0.21428105235099792,-0.3208230137825012,9.817423820495605
1689018013776888006,0.01065264455974102,0.06924218684434891,-0.13848437368869781,-0.19393032789230347,-0.3148375153541565,9.835380554199219
1689018013785888006,0.006391586735844612,0.07989483326673508,-0.13848437368869781,-0.14365209639072418,-0.3232172131538391,9.856927871704102
1689018013795888006,0.001065264455974102,0.08628641813993454,-0.13848437368869781,-0.07781155407428741,-0.33758243918418884,9.87967300415039
1689018013804888006,-0.004261057823896408,0.09054747968912125,-0.13528858125209808,-0.021547814831137657,-0.3423708379268646,9.889249801635742
1689018013815888006,-0.011717909015715122,0.09374327212572098,-0.12783172726631165,0.035913024097681046,-0.3411737382411957,9.886856079101562
1689018013823888006,-0.01810949482023716,0.09480853378772736,-0.11824434995651245,0.09696516394615173,-0.33279404044151306,9.882067680358887
1689018013834888006,-0.02556634694337845,0.09374327212572098,-0.1065264418721199,0.14365209639072418,-0.32680851221084595,9.876081466674805
1689018013843888006,-0.03302319720387459,0.092678003013134,-0.09480853378772736,0.19153612852096558,-0.3148375153541565,9.870096206665039
1689018013852888006,-0.041545312851667404,0.09054747968912125,-0.08628641813993454,0.2298433631658554,-0.304063618183136,9.86889934539795
1689018013862888006,-0.0511326938867569,0.08628641813993454,-0.07989483326673508,0.24420857429504395,-0.2885012924671173,9.865307807922363
1689018013871888006,-0.05965480953454971,0.08202536404132843,-0.07243797928094864,0.25977087020874023,-0.26815059781074524,9.858125686645508
1689018013882888006,-0.06817692518234253,0.07776430249214172,-0.06604639440774918,0.27653029561042786,-0.25258827209472656,9.852139472961426
1689018013891888006,-0.07456851005554199,0.07456851005554199,-0.058589544147253036,0.2908954918384552,-0.25258827209472656,9.84615421295166
1689018013900888006,-0.08096009492874146,0.07243797928094864,-0.055393751710653305,0.2885012924671173,-0.2693476974964142,9.864110946655273
1689018013910888006,-0.08735168725252151,0.07137271761894226,-0.05432848632335663,0.2753331959247589,-0.264559268951416,9.900023460388184
1689018013919888006,-0.092678003013134,0.06924218684434891,-0.0511326938867569,0.2849099934101105,-0.24899697303771973,9.944316864013672
1689018013930888006,-0.09693906456232071,0.06391586363315582,-0.049002163112163544,0.29209259152412415,-0.24061726033687592,9.99459457397461
1689018013938888006,-0.1022653877735138,0.05645901337265968,-0.044741105288267136,0.28730419278144836,-0.2238578498363495,10.02691650390625
1689018013948888006,-0.10439591109752655,0.05006742849946022,-0.03941478580236435,0.26336216926574707,-0.1975216418504715,10.023324966430664
1689018013958888006,-0.1022653877735138,0.04687163606286049,-0.02876213937997818,0.2238578498363495,-0.15562310814857483,10.001777648925781
1689018013967888006,-0.09800432622432709,0.04687163606286049,-0.015978965908288956,0.19033902883529663,-0.10773907601833344,9.981427192687988
1689018013977888006,-0.09054747968912125,0.05006742849946022,0.002130528911948204,0.14604629576206207,-0.0586579404771328,9.957484245300293
1689018013987888006,-0.08202536404132843,0.05645901337265968,0.02556634694337845,0.08499415963888168,0.002394201699644327,9.931148529052734
1689018013996888006,-0.07243797928094864,0.06391586363315582,0.0511326938867569,0.002394201699644327,0.0802057534456253,9.915586471557617
1689018014006888006,-0.06072007119655609,0.07456851005554199,0.07563377171754837,-0.09696516394615173,0.15442600846290588,9.90481185913086
1689018014015888006,-0.05006742849946022,0.08628641813993454,0.09693906456232071,-0.21308395266532898,0.23104046285152435,9.890446662902832
1689018014025888006,-0.03941478580236435,0.09906959533691406,0.1161138266324997,-0.3196259140968323,0.29807811975479126,9.884461402893066
1689018014034888006,-0.030892668291926384,0.11078750342130661,0.12889699637889862,-0.39384618401527405,0.3423708379268646,9.910798072814941
1689018014045888006,-0.024501081556081772,0.1203748807311058,0.1299622654914856,-0.45848962664604187,0.36990416049957275,9.959878921508789
1689018014054888006,-0.02130528911948204,0.12676647305488586,0.11930961906909943,-0.5219359397888184,0.38786065578460693,10.017339706420898
1689018014063888006,-0.02130528911948204,0.1299622654914856,0.10120011866092682,-0.569819986820221,0.41539397835731506,10.079588890075684
1689018014072888006,-0.023435818031430244,0.1299622654914856,0.08096009492874146,-0.6021417379379272,0.4489127993583679,10.121487617492676
1689018014082888006,-0.024501081556081772,0.12889699637889862,0.05645901337265968,-0.6416460275650024,0.4692635238170624,10.134655952453613
1689018014092888006,-0.026631610468029976,0.12889699637889862,0.03195793181657791,-0.6607996821403503,0.4884171485900879,10.155006408691406
1689018014101888006,-0.02876213937997818,0.12676647305488586,0.007456851191818714,-0.6392518281936646,0.5003881454467773,10.176553726196289
1689018014111888006,-0.029827404767274857,0.12357067316770554,-0.015978965908288956,-0.5925649404525757,0.4991910457611084,10.177751541137695
1689018014121888006,-0.030892668291926384,0.11717908829450607,-0.04261057823896408,-0.5147533416748047,0.4836287498474121,10.155006408691406
1689018014130888006,-0.030892668291926384,0.10972223430871964,-0.06924218684434891,-0.42856210470199585,0.46088382601737976,10.114304542541504
1689018014140888006,-0.030892668291926384,0.10120011866092682,-0.09480853378772736,-0.3579331338405609,0.4297592043876648,10.073603630065918
1689018014149888006,-0.02876213937997818,0.09374327212572098,-0.11504855751991272,-0.3016694188117981,0.39863458275794983,10.018536567687988
1689018014159888006,-0.02556634694337845,0.08735168725252151,-0.13102751970291138,-0.26336216926574707,0.37469255924224854,9.955090522766113
1689018014169888006,-0.020240023732185364,0.08522115647792816,-0.13848437368869781,-0.22744916379451752,0.3519476354122162,9.890446662902832
1689018014178888006,-0.012783173471689224,0.08415588736534119,-0.13848437368869781,-0.1867477297782898,0.33997663855552673,9.84615421295166
1689018014188888006,-0.00532632227987051,0.08309062570333481,-0.13209278881549835,-0.152031809091568,0.33279404044151306,9.831789016723633
1689018014197888006,0.004261057823896408,0.08096009492874146,-0.1203748807311058,-0.12928688526153564,0.33279404044151306,9.831789016723633
1689018014207888006,0.012783173471689224,0.07776430249214172,-0.10546118021011353,-0.13287819921970367,0.33997663855552673,9.84735107421875
1689018014216888006,0.020240023732185364,0.07456851005554199,-0.09054747968912125,-0.14604629576206207,0.3471592366695404,9.862914085388184
1689018014226888006,0.027696875855326653,0.07137271761894226,-0.07563377171754837,-0.1711854189634323,0.3687070608139038,9.861716270446777
1689018014236888006,0.03621898964047432,0.07030745595693588,-0.06072007119655609,-0.24061726033687592,0.4141968786716461,9.84735107421875
1689018014245888006,0.04687163606286049,0.07137271761894226,-0.04580637067556381,-0.34596213698387146,0.47165772318840027,9.835380554199219
1689018014255888006,0.05432848632335663,0.07456851005554199,-0.030892668291926384,-0.456095427274704,0.5231330394744873,9.842562675476074
1689018014264888006,0.06072007119655609,0.07669904083013535,-0.017044231295585632,-0.5518634915351868,0.568622887134552,9.872490882873535
1689018014274888006,0.06285060197114944,0.0788295716047287,-0.007456851191818714,-0.6584054827690125,0.6093243360519409,9.909600257873535
1689018014284888006,0.05965480953454971,0.08202536404132843,-0.00532632227987051,-0.7769184112548828,0.6572083830833435,9.952695846557617
1689018014293888006,0.052197955548763275,0.08202536404132843,-0.01065264455974102,-0.8930371999740601,0.711077868938446,9.999382972717285
1689018014303888006,0.04261057823896408,0.07989483326673508,-0.02130528911948204,-0.9756371974945068,0.7529764175415039,9.996989250183105
1689018014312888006,0.029827404767274857,0.07669904083013535,-0.041545312851667404,-1.0235211849212646,0.7745242118835449,9.96945571899414
1689018014322888006,0.014913702383637428,0.07137271761894226,-0.06817692518234253,-1.0510544776916504,0.7864952683448792,9.962272644042969
1689018014331888006,-0.004261057823896408,0.05965480953454971,-0.09906959533691406,-1.072602391242981,0.7936778664588928,9.986215591430664
1689018014341888006,-0.026631610468029976,0.044741105288267136,-0.13315805792808533,-1.114500880241394,0.790086567401886,10.019734382629395
1689018014351888006,-0.0511326938867569,0.026631610468029976,-0.15872439742088318,-1.1563993692398071,0.7876923680305481,10.020931243896484
1689018014360888006,-0.07669904083013535,0.009587380103766918,-0.17789916694164276,-1.1767500638961792,0.7757213115692139,9.996989250183105
1689018014370888006,-0.10013485699892044,-0.006391586735844612,-0.18855179846286774,-1.158793568611145,0.7457938194274902,9.949105262756348
1689018014379888006,-0.11930961906909943,-0.02130528911948204,-0.1896170675754547,-1.1013327836990356,0.6919242739677429,9.892841339111328
1689018014389888006,-0.13209278881549835,-0.03302319720387459,-0.18216021358966827,-1.0498573780059814,0.6380547285079956,9.84615421295166
1689018014398888006,-0.14061491191387177,-0.04261057823896408,-0.16511598229408264,-1.0115501880645752,0.608127236366272,9.81143856048584
1689018014408888006,-0.14168016612529755,-0.049002163112163544,-0.14061491191387177,-0.9900023937225342,0.5817909836769104,9.771934509277344
1689018014418888006,-0.13741911947727203,-0.052197955548763275,-0.10972223430871964,-0.9923965930938721,0.5626373887062073,9.747992515563965
1689018014427888006,-0.13102751970291138,-0.052197955548763275,-0.07456851005554199,-1.0055646896362305,0.5506663918495178,9.733627319335938
1689018014437888006,-0.12144014239311218,-0.052197955548763275,-0.03941478580236435,-1.0199298858642578,0.5506663918495178,9.739612579345703
1689018014446888006,-0.11078750342130661,-0.049002163112163544,-0.002130528911948204,-1.0295066833496094,0.5602431893348694,9.75517463684082
1689018014456888006,-0.10013485699892044,-0.04580637067556381,0.03302319720387459,-1.0307037830352783,0.569819986820221,9.740809440612793
1689018014465888006,-0.08948221057653427,-0.041545312851667404,0.06285060197114944,-1.0235211849212646,0.5949591398239136,9.728838920593262
1689018014475888006,-0.08522115647792816,-0.04048004746437073,0.08522115647792816,-1.0211269855499268,0.6488286256790161,9.769539833068848
1689018014485888006,-0.08415588736534119,-0.044741105288267136,0.09800432622432709,-1.0630255937576294,0.7146691679954529,9.835380554199219
1689018014494888006,-0.09054747968912125,-0.05432848632335663,0.09906959533691406,-1.1121066808700562,0.7793126106262207,9.882067680358887
1689018014504888006,-0.10120011866092682,-0.06604639440774918,0.09374327212572098,-1.115697979927063,0.8319850564002991,9.911994934082031
1689018014514888006,-0.11717908829450607,-0.08415588736534119,0.0788295716047287,-1.1001356840133667,0.8702923059463501,9.93593692779541
1689018014523888006,-0.13635385036468506,-0.10546118021011353,0.05752427875995636,-1.0809820890426636,0.8930371999740601,9.962272644042969
1689018014533888006,-0.15659387409687042,-0.13102751970291138,0.027696875855326653,-1.0307037830352783,0.8870517015457153,9.987412452697754
1689018014542888006,-0.1768338978290558,-0.16405072808265686,-0.002130528911948204,-0.8008604645729065,0.7685387134552002,9.908403396606445
1689018014552888006,-0.20133498311042786,-0.2130528837442398,-0.014913702383637428,-0.689530074596405,0.7098807692527771,9.88086986541748
1689018014562888006,-0.21518342196941376,-0.2514024078845978,-0.02876213937997818,-0.6260837316513062,0.628477931022644,9.932345390319824
1689018014571888006,-0.22370553016662598,-0.2865561246871948,-0.03195793181657791,-0.3579331338405609,0.4010287821292877,9.915586471557617
1689018014581888006,-0.22050973773002625,-0.31212249398231506,-0.017044231295585632,-0.26575639843940735,0.30047231912612915,9.921571731567383
1689018014590888006,-0.2034655064344406,-0.3195793330669403,-0.011717909015715122,-0.20350714027881622,0.21188685297966003,9.949105262756348
1689018014600888006,-0.17257283627986908,-0.3142530024051666,-0.002130528911948204,-0.12210428714752197,0.10055647045373917,9.929951667785645
1689018014609888006,-0.13209278881549835,-0.2929477095603943,-0.002130528911948204,-0.14484919607639313,0.020350713282823563,9.891644477844238
1689018014619888006,-0.08415588736534119,-0.2631203234195709,-0.01810949482023716,-0.16400282084941864,-0.07062894850969315,9.920374870300293
1689018014629888006,-0.03302319720387459,-0.22796659171581268,-0.04687163606286049,-0.17477671802043915,-0.15442600846290588,9.9586820602417
1689018014638888006,0.017044231295585632,-0.19387812912464142,-0.09374327212572098,-0.17956513166427612,-0.23343466222286224,9.962272644042969
1689018014647888006,0.06072007119655609,-0.16511598229408264,-0.15020228922367096,-0.21787235140800476,-0.355538934469223,10.019734382629395
1689018014657888006,0.08948221057653427,-0.14700649678707123,-0.19813919067382812,-0.2753331959247589,-0.5853822827339172,10.153809547424316
1689018014667888006,0.10439591109752655,-0.13741911947727203,-0.23116238415241241,-0.25498247146606445,-0.8463503122329712,10.326191902160645
1689018014677888006,0.10546118021011353,-0.13848437368869781,-0.258859246969223,-0.16759411990642548,-1.0474631786346436,10.552443504333496
1689018014686888006,0.09693906456232071,-0.15020228922367096,-0.2822950780391693,-0.06823474913835526,-1.217451572418213,10.773907661437988
1689018014696888006,0.08202536404132843,-0.16511598229408264,-0.3014698326587677,0.06584054231643677,-1.3850456476211548,10.919953346252441
1689018014705888006,0.0649811327457428,-0.18216021358966827,-0.31212249398231506,0.20111294090747833,-1.5167267322540283,11.034875869750977
1689018014715888006,0.05006742849946022,-0.19600865244865417,-0.3099919557571411,0.28969839215278625,-1.5753847360610962,11.086350440979004
1689018014725888006,0.044741105288267136,-0.2034655064344406,-0.3004045784473419,0.36990416049957275,-1.5526397228240967,11.015722274780273
1689018014734888006,0.049002163112163544,-0.20133498311042786,-0.2908172011375427,0.447715699672699,-1.4867992401123047,10.912771224975586
1689018014744888006,0.06178533658385277,-0.19281286001205444,-0.28442561626434326,0.48482584953308105,-1.4173673391342163,10.834959983825684
1689018014753888006,0.0788295716047287,-0.17896442115306854,-0.28549087047576904,0.49320554733276367,-1.3646949529647827,10.772710800170898
1689018014762888006,0.09587380290031433,-0.1619201898574829,-0.29507824778556824,0.4991910457611084,-1.3323732614517212,10.69370174407959
1689018014772888006,0.11185276508331299,-0.14061491191387177,-0.31318774819374084,0.50876784324646,-1.280897855758667,10.606313705444336
1689018014782888006,0.12783172726631165,-0.11717908829450607,-0.3398193418979645,0.5422866940498352,-1.2054805755615234,10.523713111877441
1689018014791888006,0.14168016612529755,-0.09587380290031433,-0.3760383427143097,0.5805938839912415,-1.0893617868423462,10.439916610717773
1689018014801888006,0.15446333587169647,-0.07456851005554199,-0.41438785195350647,0.6117185354232788,-0.9564835429191589,10.345345497131348
1689018014810888006,0.16618125140666962,-0.05326322093605995,-0.45167210698127747,0.6572083830833435,-0.8355763554573059,10.234015464782715
1689018014820888006,0.1768338978290558,-0.03302319720387459,-0.48363006114959717,0.6871358752250671,-0.7254431247711182,10.131064414978027
1689018014829888006,0.18429075181484222,-0.013848437927663326,-0.5060005784034729,0.6871358752250671,-0.6667851805686951,10.044873237609863
1689018014840888006,0.18429075181484222,0.001065264455974102,-0.5166532397270203,0.6715735793113708,-0.6380547285079956,9.967061042785645
1689018014849888006,0.18002969026565552,0.009587380103766918,-0.5134574770927429,0.667982280254364,-0.6177040338516235,9.932345390319824
1689018014858888006,0.16937704384326935,0.012783173471689224,-0.5070658922195435,0.6428431272506714,-0.6212953329086304,9.927556991577148
1689018014868888006,0.15446333587169647,0.011717909015715122,-0.49428269267082214,0.5770025849342346,-0.6248866319656372,9.917980194091797
1689018014878888006,0.13741911947727203,0.008522115647792816,-0.4697816073894501,0.5267243385314941,-0.628477931022644,9.90241813659668
1689018014888888006,0.1161138266324997,0.004261057823896408,-0.4399542212486267,0.4596867263317108,-0.651222825050354,9.848548889160156
1689018014897888006,0.09693906456232071,0.001065264455974102,-0.407996267080307,0.3603273630142212,-0.6488286256790161,9.770736694335938
1689018014907888006,0.08096009492874146,-0.003195793367922306,-0.3792341351509094,0.2801215946674347,-0.6153098344802856,9.72404956817627
1689018014916888006,0.06924218684434891,-0.009587380103766918,-0.35899412631988525,0.2214636504650116,-0.5841851830482483,9.68694019317627
1689018014925888006,0.06391586363315582,-0.017044231295585632,-0.34940674901008606,0.13287819921970367,-0.5351040959358215,9.627084732055664
1689018014935888006,0.06604639440774918,-0.02130528911948204,-0.3483414649963379,-0.0071826050989329815,-0.47644612193107605,9.551667213439941
1689018014944888006,0.07456851005554199,-0.020240023732185364,-0.34621095657348633,-0.08738835901021957,-0.45848962664604187,9.471461296081543
1689018014954888006,0.08522115647792816,-0.017044231295585632,-0.3472762107849121,-0.07422025501728058,-0.456095427274704,9.397241592407227
1689018014964888006,0.09800432622432709,-0.01065264455974102,-0.3483414649963379,-0.08499415963888168,-0.4489127993583679,9.339780807495117
1689018014973888006,0.11078750342130661,-0.003195793367922306,-0.3472762107849121,-0.14006079733371735,-0.43933600187301636,9.305065155029297
1689018014983888006,0.12250541150569916,0.006391586735844612,-0.34514567255973816,-0.1735796183347702,-0.42856210470199585,9.255983352661133
1689018014992888006,0.12889699637889862,0.014913702383637428,-0.34088462591171265,-0.18555063009262085,-0.416591078042984,9.181763648986816
1689018015003888006,0.13315805792808533,0.023435818031430244,-0.33236250281333923,-0.21188685297966003,-0.395043283700943,9.115922927856445
1689018015012888006,0.13102751970291138,0.030892668291926384,-0.32170987129211426,-0.24061726033687592,-0.3711012601852417,9.05367374420166
1689018015021888006,0.12783172726631165,0.03834952041506767,-0.30360037088394165,-0.2801215946674347,-0.3423708379268646,8.957905769348145
1689018015031888006,0.12676647305488586,0.052197955548763275,-0.2727077007293701,-0.2992752194404602,-0.3280056416988373,8.820239067077637
1689018015040888006,0.1257012039422989,0.07137271761894226,-0.2322276532649994,-0.2609679698944092,-0.3196259140968323,8.71609115600586
1689018015051888006,0.12463594228029251,0.09054747968912125,-0.18642127513885498,-0.21667525172233582,-0.29807811975479126,8.689754486083984
1689018015060888006,0.1203748807311058,0.10865697264671326,-0.13528858125209808,-0.1999158412218094,-0.26575639843940735,8.71609115600586
1689018015069888006,0.11398329585790634,0.12357067316770554,-0.08096009492874146,-0.19153612852096558,-0.22864626348018646,8.763975143432617
1689018015079888006,0.10333064943552017,0.13315805792808533,-0.027696875855326653,-0.16998831927776337,-0.19273322820663452,8.835801124572754
1689018015088888006,0.0884169489145279,0.13741911947727203,0.022370552644133568,-0.1388636976480484,-0.16879121959209442,8.927977561950684
1689018015098888006,0.07350324839353561,0.13848437368869781,0.06924218684434891,-0.1173158809542656,-0.14604629576206207,8.99740982055664
1689018015108888006,0.06178533658385277,0.14061491191387177,0.10865697264671326,-0.10654197633266449,-0.09696516394615173,9.042900085449219
1689018015117888006,0.052197955548763275,0.14168016612529755,0.14594122767448425,-0.0933738648891449,-0.03232172131538391,9.11113452911377
1689018015126888006,0.044741105288267136,0.14168016612529755,0.17789916694164276,-0.0586579404771328,0.02513911761343479,9.181763648986816
1689018015136888006,0.03941478580236435,0.14061491191387177,0.20026971399784088,-0.023942016065120697,0.10295066982507706,9.254786491394043
1689018015147416051,0.03515372797846794,0.13635385036468506,0.2130528837442398,-0.02992752008140087,0.20231004059314728,9.356539726257324
1689018015156416051,0.03195793181657791,0.1299622654914856,0.21411815285682678,-0.05506663769483566,0.2801215946674347,9.44871711730957
1689018015166416051,0.029827404767274857,0.12144014239311218,0.20240023732185364,-0.05147533491253853,0.325611412525177,9.516951560974121
1689018015176416051,0.02876213937997818,0.10972223430871964,0.1757686287164688,-0.03950432687997818,0.3363853394985199,9.59596061706543
1689018015185416051,0.027696875855326653,0.09800432622432709,0.13848437368869781,-0.04429272934794426,0.33039984107017517,9.660603523254395
1689018015195416051,0.027696875855326653,0.09161274135112762,0.10120011866092682,-0.023942016065120697,0.3280056416988373,9.68694019317627
1689018015204416051,0.029827404767274857,0.0884169489145279,0.06711165606975555,0.038307227194309235,0.3124433159828186,9.701305389404297
1689018015214416051,0.03515372797846794,0.08735168725252151,0.03941478580236435,0.10295066982507706,0.2908954918384552,9.734824180603027
1689018015223416051,0.04261057823896408,0.08522115647792816,0.014913702383637428,0.17238251864910126,0.25258827209472656,9.807847023010254
1689018015233416051,0.049002163112163544,0.07989483326673508,-0.006391586735844612,0.26815059781074524,0.2106897532939911,9.917980194091797
1689018015243416051,0.05326322093605995,0.06711165606975555,-0.020240023732185364,0.4034229815006256,0.13287819921970367,10.055646896362305
1689018015252416051,0.05006742849946022,0.0511326938867569,-0.009587380103766918,0.590170681476593,-0.05626373738050461,10.249577522277832
1689018015262416051,0.030892668291926384,0.034088462591171265,0.04048004746437073,0.7996633648872375,-0.3280056416988373,10.504559516906738
1689018015272416051,0.004261057823896408,0.019174760207533836,0.12463594228029251,0.8738836050033569,-0.4537012279033661,10.650606155395508
1689018015281416051,-0.01065264455974102,0.011717909015715122,0.21411815285682678,0.7529764175415039,-0.30526071786880493,10.645817756652832
1689018015291416051,-0.003195793367922306,0.014913702383637428,0.2972087860107422,0.5770025849342346,-0.08140285313129425,10.643423080444336
1689018015300416051,0.020240023732185364,0.02556634694337845,0.3664509654045105,0.3423708379268646,0.12689268589019775,10.679336547851562
1689018015310416051,0.05326322093605995,0.04048004746437073,0.41545313596725464,0.08140285313129425,0.30526071786880493,10.821791648864746
1689018015319416051,0.08628641813993454,0.0511326938867569,0.4356931447982788,-0.13527239859104156,0.36750996112823486,11.106701850891113
1689018015329416051,0.10865697264671326,0.052197955548763275,0.4218447208404541,-0.33997663855552673,0.3208230137825012,11.435904502868652
1689018015338416051,0.11504855751991272,0.047936901450157166,0.3771035969257355,-0.5482721924781799,0.2190694510936737,11.731588363647461
1689018015348416051,0.11078750342130661,0.04048004746437073,0.3067961633205414,-0.7445967197418213,0.07900865375995636,11.959036827087402
1689018015358416051,0.09800432622432709,0.03195793181657791,0.21198762953281403,-0.9097966551780701,-0.08499415963888168,12.064382553100586
1689018015367416051,0.08522115647792816,0.027696875855326653,0.11078750342130661,-0.9828197956085205,-0.2190694510936737,12.034454345703125
1689018015377416051,0.07669904083013535,0.02876213937997818,0.023435818031430244,-0.9169792532920837,-0.24779987335205078,11.918335914611816
1689018015386416051,0.07563377171754837,0.03941478580236435,-0.034088462591171265,-0.7158662676811218,-0.22864626348018646,11.820173263549805
1689018015396416051,0.07669904083013535,0.05752427875995636,-0.058589544147253036,-0.5123591423034668,-0.19871874153614044,11.640608787536621
1689018015405416051,0.0884169489145279,0.08628641813993454,-0.06285060197114944,-0.3974374830722809,-0.10654197633266449,11.353303909301758
1689018015415416051,0.11185276508331299,0.1203748807311058,-0.05752427875995636,-0.25258827209472656,-0.04908113554120064,11.060014724731445
1689018015425416051,0.14061491191387177,0.15446333587169647,-0.04048004746437073,-0.11851298063993454,-0.07302314788103104,10.757147789001465
1689018015434416051,0.1757686287164688,0.18429075181484222,-0.012783173471689224,-0.05386953800916672,-0.13527239859104156,10.472237586975098
1689018015444416051,0.2130528837442398,0.20985709130764008,0.017044231295585632,-0.06703764945268631,-0.264559268951416,10.190918922424316
1689018015453416051,0.24501082301139832,0.23116238415241241,0.052197955548763275,-0.16400282084941864,-0.386663556098938,9.90481185913086
1689018015463416051,0.2727077007293701,0.24820661544799805,0.08202536404132843,-0.2513911724090576,-0.4884171485900879,9.673771858215332
1689018015472416051,0.28975191712379456,0.25672873854637146,0.1022653877735138,-0.3196259140968323,-0.6452373266220093,9.561244010925293
1689018015482416051,0.2886866629123688,0.25353294610977173,0.12357067316770554,-0.34835633635520935,-0.8619126081466675,9.490615844726562
1689018015492416051,0.26205503940582275,0.23542344570159912,0.16511598229408264,-0.3280056416988373,-1.0893617868423462,9.390058517456055
1689018015501416051,0.21518342196941376,0.2034655064344406,0.222640261054039,-0.3627215623855591,-1.179144263267517,9.208099365234375
1689018015511416051,0.1619201898574829,0.1619201898574829,0.2684466242790222,-0.4489127993583679,-1.037886381149292,9.029731750488281
1689018015521416051,0.11185276508331299,0.11504855751991272,0.28442561626434326,-0.4644751250743866,-0.7996633648872375,8.957905769348145
1689018015530416051,0.06072007119655609,0.06178533658385277,0.2737729549407959,-0.45489832758903503,-0.5949591398239136,8.968679428100586
1689018015539416051,0.006391586735844612,0.009587380103766918,0.23542344570159912,-0.5638344883918762,-0.3734954595565796,9.038111686706543
1689018015549416051,-0.04580637067556381,-0.03621898964047432,0.16511598229408264,-0.7457938194274902,-0.11611878126859665,9.166200637817383
1689018015559416051,-0.09587380290031433,-0.07350324839353561,0.07669904083013535,-0.8523358106613159,0.05626373738050461,9.276334762573242
1689018015568416051,-0.14274543523788452,-0.10439591109752655,-0.009587380103766918,-0.8774749040603638,0.08978256583213806,9.26795482635498
1689018015578416051,-0.18216021358966827,-0.12783172726631165,-0.08096009492874146,-0.871489405632019,0.028730420395731926,9.148244857788086
1689018015588416051,-0.21092236042022705,-0.14168016612529755,-0.12676647305488586,-0.871489405632019,-0.08738835901021957,8.987833023071289
1689018015597416051,-0.22796659171581268,-0.1438107043504715,-0.1438107043504715,-0.7984662652015686,-0.15921440720558167,8.796297073364258
1689018015607416051,-0.21944446861743927,-0.1438107043504715,-0.11398329585790634,-0.5183446407318115,-0.21308395266532898,8.47906494140625
1689018015616416051,-0.18855179846286774,-0.15020228922367096,-0.03195793181657791,-0.13168108463287354,-0.30286651849746704,8.128314971923828
1689018015626416051,-0.1342233121395111,-0.16298545897006989,0.08202536404132843,0.16998831927776337,-0.333991140127182,7.943961143493652
1689018015635416051,-0.07563377171754837,-0.17470337450504303,0.2183792144060135,0.3842693567276001,-0.6248866319656372,8.093598365783691
1689018015645416051,-0.03941478580236435,-0.18322548270225525,0.36858150362968445,0.40222588181495667,-0.9744400978088379,8.35456657409668
1689018015655416051,-0.017044231295585632,-0.17896442115306854,0.48895636200904846,0.14484919607639313,-1.01753568649292,8.560467720031738
1689018015664416051,0.0,-0.15659387409687042,0.5688512325286865,-0.25019407272338867,-0.9672574996948242,8.819042205810547
1689018015674416051,0.009587380103766918,-0.11504855751991272,0.6040049195289612,-0.5817909836769104,-0.8463503122329712,9.121908187866211
1689018015684416051,0.00532632227987051,-0.06178533658385277,0.6114617586135864,-0.6584054827690125,-0.6619967818260193,9.398438453674316
1689018015693416051,-0.001065264455974102,-0.008522115647792816,0.6093312501907349,-0.3687070608139038,-0.2059013396501541,9.414000511169434
1689018015703416051,0.01810949482023716,0.027696875855326653,0.5997439026832581,0.10893617570400238,0.3770867586135864,9.281123161315918
1689018015712416051,0.058589544147253036,0.044741105288267136,0.555002748966217,0.3770867586135864,0.6871358752250671,9.281123161315918
1689018015721416051,0.09480853378772736,0.055393751710653305,0.4910869002342224,0.31364041566848755,0.7972691655158997,9.436745643615723
1689018015731416051,0.12144014239311218,0.07137271761894226,0.4218447208404541,0.07900865375995636,0.8319850564002991,9.625887870788574
1689018015741416051,0.13635385036468506,0.09587380290031433,0.34621095657348633,-0.16639702022075653,0.8643068075180054,9.764751434326172
1689018015751416051,0.14913702011108398,0.12676647305488586,0.2727077007293701,-0.3734954595565796,0.9241618514060974,9.836577415466309
1689018015760416051,0.16511598229408264,0.15978966653347015,0.2034655064344406,-0.5398924946784973,1.0055646896362305,9.841365814208984
1689018015770416051,0.18429075181484222,0.1906823366880417,0.148071750998497,-0.628477931022644,1.0474631786346436,9.84376049041748
1689018015779416051,0.20772656798362732,0.21411815285682678,0.11504855751991272,-0.6308721303939819,1.0079588890075684,9.890446662902832
1689018015789416051,0.22903186082839966,0.22796659171581268,0.09693906456232071,-0.5925649404525757,0.9289502501487732,9.986215591430664
1689018015799416051,0.24288028478622437,0.2322276532649994,0.10120011866092682,-0.5171475410461426,0.7745242118835449,10.133458137512207
1689018015808416051,0.24820661544799805,0.2269013226032257,0.11504855751991272,-0.4321534037590027,0.6488286256790161,10.289081573486328
1689018015818416051,0.250337153673172,0.21198762953281403,0.11930961906909943,-0.3543418347835541,0.751779317855835,10.45547866821289
1689018015827416051,0.2641855776309967,0.18855179846286774,0.11291802674531937,-0.26815059781074524,0.9864110946655273,10.600327491760254
1689018015836416051,0.28442561626434326,0.1576591432094574,0.09693906456232071,-0.208295539021492,1.1204863786697388,10.733205795288086
1689018015846416051,0.3025350868701935,0.1257012039422989,0.06924218684434891,-0.22505494952201843,1.1097124814987183,10.94030475616455
1689018015856416051,0.30892667174339294,0.09587380290031433,0.04048004746437073,-0.29209259152412415,0.9840168952941895,11.196483612060547
1689018015866416051,0.296143501996994,0.07243797928094864,0.026631610468029976,-0.3818751573562622,0.7613561153411865,11.45266342163086
1689018015875416051,0.2695119082927704,0.05965480953454971,0.014913702383637428,-0.48722004890441895,0.568622887134552,11.663352966308594
1689018015885416051,0.23755396902561188,0.052197955548763275,-0.006391586735844612,-0.5267243385314941,0.48482584953308105,11.783063888549805
1689018015894416051,0.2087918221950531,0.044741105288267136,-0.037284255027770996,-0.5003881454467773,0.5027823448181152,11.786654472351074
1689018015904416051,0.19387812912464142,0.037284255027770996,-0.05965480953454971,-0.48961424827575684,0.7266402244567871,11.748347282409668
1689018015914416051,0.19600865244865417,0.02130528911948204,-0.05645901337265968,-0.4381389021873474,0.9995791912078857,11.672929763793945
1689018015923416051,0.21092236042022705,0.002130528911948204,-0.03941478580236435,-0.31124621629714966,1.0678139925003052,11.523292541503906
1689018015933416051,0.21944446861743927,-0.012783173471689224,-0.02130528911948204,-0.23343466222286224,0.8846575021743774,11.42752456665039
1689018015942416051,0.2087918221950531,-0.020240023732185364,-0.030892668291926384,-0.1711854189634323,0.6380547285079956,11.481393814086914
1689018015951416051,0.18216021358966827,-0.02130528911948204,-0.06178533658385277,-0.011971008032560349,0.5853822827339172,11.51730728149414
1689018015961416051,0.15446333587169647,-0.023435818031430244,-0.10013485699892044,0.14604629576206207,0.6655880808830261,11.383232116699219
1689018015971416051,0.12783172726631165,-0.023435818031430244,-0.148071750998497,0.16639702022075653,0.6200982332229614,11.204863548278809
1689018015980416051,0.09693906456232071,-0.017044231295585632,-0.19281286001205444,0.05746084079146385,0.4572925269603729,11.12465763092041
1689018015990416051,0.06178533658385277,-0.006391586735844612,-0.21518342196941376,-0.06344634294509888,0.416591078042984,10.99776554107666
1689018015999416051,0.029827404767274857,0.008522115647792816,-0.23009711503982544,-0.08379705995321274,0.5099649429321289,10.709263801574707
1689018016009416051,0.004261057823896408,0.027696875855326653,-0.25246766209602356,0.005985504016280174,0.6548141837120056,10.348937034606934
1689018016019416051,-0.01065264455974102,0.04367584362626076,-0.2727077007293701,0.15083470940589905,0.8391676545143127,9.964667320251465
1689018016029416051,-0.014913702383637428,0.05645901337265968,-0.287621408700943,0.27892449498176575,0.9840168952941895,9.649829864501953
1689018016038416051,-0.014913702383637428,0.06817692518234253,-0.2972087860107422,0.33758243918418884,1.0450689792633057,9.45111083984375
1689018016047416051,-0.014913702383637428,0.07989483326673508,-0.29933929443359375,0.3519476354122162,1.0438718795776367,9.351751327514648
1689018016057416051,-0.020240023732185364,0.09587380290031433,-0.3014698326587677,0.29807811975479126,0.8738836050033569,9.264363288879395
1689018016067416051,-0.04048004746437073,0.11930961906909943,-0.2929477095603943,0.15921440720558167,0.5530605912208557,9.14704704284668
1689018016076416051,-0.07030745595693588,0.148071750998497,-0.24714134633541107,0.04668693244457245,0.24061726033687592,9.005789756774902
1689018016086416051,-0.1022653877735138,0.1768338978290558,-0.16511598229408264,-0.0011971008498221636,-0.02753331884741783,8.835801124572754
1689018016095416051,-0.1342233121395111,0.20240023732185364,-0.07776430249214172,0.010773907415568829,-0.20350714027881622,8.684966087341309
1689018016105416051,-0.1619201898574829,0.22050973773002625,-0.00532632227987051,0.08738835901021957,-0.2561795711517334,8.53293514251709
1689018016114416051,-0.18322548270225525,0.22903186082839966,0.034088462591171265,0.208295539021492,-0.2537853717803955,8.3892822265625
1689018016125416051,-0.19813919067382812,0.22796659171581268,0.01810949482023716,0.33758243918418884,-0.25977087020874023,8.288725852966309
1689018016134416051,-0.21092236042022705,0.21624867618083954,-0.04687163606286049,0.35673603415489197,-0.23822306096553802,8.242039680480957
1689018016144416051,-0.22583605349063873,0.20026971399784088,-0.12676647305488586,0.1628057062625885,-0.23822306096553802,8.153453826904297
1689018016153416051,-0.24714134633541107,0.19174760580062866,-0.18855179846286774,-0.20709843933582306,-0.3196259140968323,8.000225067138672
1689018016162416051,-0.27164241671562195,0.19281286001205444,-0.20559602975845337,-0.5758054852485657,-0.3411737382411957,7.8745293617248535
1689018016173416051,-0.2929477095603943,0.19707392156124115,-0.18216021358966827,-0.7912836670875549,-0.3495534360408783,7.782352447509766
1689018016182416051,-0.31318774819374084,0.1992044448852539,-0.1438107043504715,-0.8786720037460327,-0.40462008118629456,7.723694324493408
1689018016192416051,-0.324905663728714,0.1949433982372284,-0.10439591109752655,-0.8212111592292786,-0.32202011346817017,7.733271598815918
1689018016201416051,-0.3238403797149658,0.18216021358966827,-0.0788295716047287,-0.7422025203704834,-0.1149216815829277,7.8098859786987305
1689018016210416051,-0.30892667174339294,0.16298545897006989,-0.06711165606975555,-0.8140285611152649,0.08259996026754379,7.8948798179626465
1689018016220416051,-0.28442561626434326,0.14487595856189728,-0.0511326938867569,-0.9720458984375,0.24899697303771973,7.957129001617432
1689018016229416051,-0.2545982003211975,0.13102751970291138,-0.03621898964047432,-1.1408370733261108,0.3411737382411957,8.056488990783691
1689018016239416051,-0.22370553016662598,0.11930961906909943,-0.027696875855326653,-1.217451572418213,0.3543418347835541,8.203731536865234
1689018016249416051,-0.1949433982372284,0.11078750342130661,-0.017044231295585632,-1.1552022695541382,0.39145198464393616,8.335412979125977
1689018016258416051,-0.16511598229408264,0.10439591109752655,-0.008522115647792816,-1.0618284940719604,0.4800374209880829,8.463502883911133
1689018016268416051,-0.14168016612529755,0.10333064943552017,-0.008522115647792816,-1.0235211849212646,0.5482721924781799,8.610746383666992
1689018016277416051,-0.12357067316770554,0.1065264418721199,-0.01065264455974102,-1.0199298858642578,0.5386953949928284,8.792705535888672
1689018016287416051,-0.11717908829450607,0.10972223430871964,-0.022370552644133568,-1.0103530883789062,0.4752490222454071,9.02135181427002
1689018016297416051,-0.1161138266324997,0.11185276508331299,-0.030892668291926384,-0.9696516990661621,0.4297592043876648,9.247604370117188
1689018016306416051,-0.11824434995651245,0.10972223430871964,-0.03195793181657791,-0.9349357485771179,0.3842693567276001,9.441534042358398
1689018016316416051,-0.12357067316770554,0.10013485699892044,-0.026631610468029976,-0.9157821536064148,0.3603273630142212,9.604339599609375
1689018016325416051,-0.1257012039422989,0.08948221057653427,-0.020240023732185364,-0.9157821536064148,0.36152446269989014,9.75397777557373
1689018016335416051,-0.12357067316770554,0.07776430249214172,-0.015978965908288956,-0.8882488012313843,0.37469255924224854,9.913191795349121
1689018016344416051,-0.11398329585790634,0.06285060197114944,-0.015978965908288956,-0.8080430626869202,0.44651859998703003,10.042478561401367
1689018016355416051,-0.09800432622432709,0.04687163606286049,-0.019174760207533836,-0.751779317855835,0.545877993106842,10.086771965026855
1689018016364416051,-0.07669904083013535,0.03515372797846794,-0.023435818031430244,-0.7146691679954529,0.5997475385665894,10.102334022521973
1689018016373416051,-0.055393751710653305,0.02556634694337845,-0.02876213937997818,-0.7003039717674255,0.5853822827339172,10.143034934997559
1689018016383416051,-0.037284255027770996,0.022370552644133568,-0.034088462591171265,-0.7242460250854492,0.49799394607543945,10.200495719909668
1689018016392416051,-0.024501081556081772,0.023435818031430244,-0.037284255027770996,-0.7565677165985107,0.3974374830722809,10.26394271850586
1689018016403416051,-0.015978965908288956,0.027696875855326653,-0.03515372797846794,-0.7469909191131592,0.355538934469223,10.338162422180176
1689018016412416051,0.001065264455974102,0.030892668291926384,-0.03302319720387459,-0.7194576263427734,0.3818751573562622,10.398017883300781
1689018016421416051,0.027696875855326653,0.03195793181657791,-0.029827404767274857,-0.7433996200561523,0.4752490222454071,10.438718795776367
1689018016431416051,0.06178533658385277,0.03302319720387459,-0.027696875855326653,-0.7972691655158997,0.5267243385314941,10.493785858154297
1689018016440416051,0.09161274135112762,0.03621898964047432,-0.023435818031430244,-0.833182156085968,0.45489832758903503,10.548852920532227
1689018016450416051,0.10865697264671326,0.03834952041506767,-0.022370552644133568,-0.8080430626869202,0.28371289372444153,10.663774490356445
1689018016459416051,0.10759171098470688,0.03515372797846794,-0.027696875855326653,-0.7134720683097839,0.04668693244457245,10.842142105102539
1689018016469416051,0.09161274135112762,0.024501081556081772,-0.03941478580236435,-0.6129156351089478,-0.16879121959209442,11.039664268493652
1689018016478416051,0.07137271761894226,0.001065264455974102,-0.055393751710653305,-0.5339069962501526,-0.28371289372444153,11.204863548278809
1689018016488416051,0.058589544147253036,-0.02876213937997818,-0.08202536404132843,-0.4381389021873474,-0.25498247146606445,11.316194534301758
1689018016498416051,0.06285060197114944,-0.06391586363315582,-0.10759171098470688,-0.3495534360408783,-0.10534487664699554,11.389217376708984
1689018016507416051,0.08096009492874146,-0.09906959533691406,-0.11291802674531937,-0.37469255924224854,0.04189852997660637,11.377245903015137
1689018016517416051,0.10439591109752655,-0.12676647305488586,-0.08948221057653427,-0.545877993106842,0.08738835901021957,11.349713325500488
1689018016527416051,0.11824434995651245,-0.1395496428012848,-0.0511326938867569,-0.6835445761680603,0.010773907415568829,11.367669105529785
1689018016536416051,0.11824434995651245,-0.14274543523788452,-0.01065264455974102,-0.833182156085968,-0.023942016065120697,11.420341491699219
1689018016546416051,0.10759171098470688,-0.13635385036468506,0.034088462591171265,-0.9696516990661621,-0.05386953800916672,11.512518882751465
1689018016555416051,0.08096009492874146,-0.12783172726631165,0.06817692518234253,-1.0426747798919678,-0.20949263870716095,11.605892181396484
1689018016566416051,0.04261057823896408,-0.11398329585790634,0.08735168725252151,-1.1001356840133667,-0.304063618183136,11.650185585021973
1689018016574416051,0.006391586735844612,-0.10439591109752655,0.08096009492874146,-1.1013327836990356,-0.24420857429504395,11.628637313842773
1689018016584416051,-0.019174760207533836,-0.10013485699892044,0.05645901337265968,-1.1252747774124146,-0.12210428714752197,11.552022933959961
1689018016593416051,-0.03195793181657791,-0.10439591109752655,0.030892668291926384,-1.136048674583435,-0.02753331884741783,11.481393814086914
1689018016603416051,-0.029827404767274857,-0.12144014239311218,0.011717909015715122,-1.1037269830703735,0.05626373738050461,11.402385711669922
1689018016613416051,-0.017044231295585632,-0.14594122767448425,0.00532632227987051,-1.1204863786697388,0.08140285313129425,11.277887344360352
1689018016622416051,-0.00532632227987051,-0.16618125140666962,0.013848437927663326,-1.2653355598449707,-0.020350713282823563,11.092336654663086
1689018016632416051,-0.007456851191818714,-0.1715075671672821,0.03302319720387459,-1.3730746507644653,-0.18555063009262085,10.74876880645752
1689018016641416051,-0.02556634694337845,-0.16511598229408264,0.05326322093605995,-1.303642749786377,-0.43335050344467163,10.352527618408203
1689018016651416051,-0.058589544147253036,-0.15446333587169647,0.06285060197114944,-1.2018892765045166,-0.6799532771110535,10.103530883789062
1689018016661416051,-0.09374327212572098,-0.14168016612529755,0.07669904083013535,-1.213860273361206,-0.751779317855835,9.900023460388184
1689018016670416051,-0.11398329585790634,-0.12889699637889862,0.10013485699892044,-1.2976572513580322,-0.6835445761680603,9.749189376831055
1689018016680416051,-0.1203748807311058,-0.12250541150569916,0.12250541150569916,-1.3670891523361206,-0.5937620401382446,9.619902610778809
1689018016689416051,-0.11824434995651245,-0.11717908829450607,0.13209278881549835,-1.4065934419631958,-0.5111620426177979,9.466672897338867
1689018016699416051,-0.11185276508331299,-0.11078750342130661,0.1299622654914856,-1.456871747970581,-0.4058171808719635,9.339780807495117
1689018016709416051,-0.10546118021011353,-0.1022653877735138,0.12889699637889862,-1.4915876388549805,-0.28969839215278625,9.20211410522461
1689018016718416051,-0.1022653877735138,-0.09054747968912125,0.12783172726631165,-1.4844050407409668,-0.2059013396501541,9.106346130371094
1689018016728416051,-0.1065264418721199,-0.07776430249214172,0.1299622654914856,-1.4401123523712158,-0.19393032789230347,9.068038940429688
1689018016737416051,-0.11824434995651245,-0.06817692518234253,0.13315805792808533,-1.2641384601593018,-0.28131869435310364,9.011775016784668
1689018016747416051,-0.13848437368869781,-0.06178533658385277,0.13635385036468506,-0.9720458984375,-0.3687070608139038,8.939949035644531
1689018016756416051,-0.16085493564605713,-0.0649811327457428,0.1342233121395111,-0.667982280254364,-0.3770867586135864,8.858546257019043
1689018016766416051,-0.1757686287164688,-0.07776430249214172,0.13315805792808533,-0.4225766062736511,-0.3627215623855591,8.71489429473877
1689018016776416051,-0.185356006026268,-0.09800432622432709,0.13741911947727203,-0.2777273952960968,-0.38307225704193115,8.546102523803711
1689018016785416051,-0.1896170675754547,-0.12250541150569916,0.13102751970291138,-0.19033902883529663,-0.3902548849582672,8.402450561523438
1689018016795416051,-0.1896170675754547,-0.14913702011108398,0.11824434995651245,-0.13407529890537262,-0.3292027413845062,8.29471206665039
1689018016804416051,-0.18748654425144196,-0.17789916694164276,0.10333064943552017,-0.10175357013940811,-0.22864626348018646,8.194154739379883
1689018016814416051,-0.1810949593782425,-0.20772656798362732,0.08735168725252151,-0.09696516394615173,-0.07422025501728058,8.122328758239746
1689018016824416051,-0.17257283627986908,-0.23329290747642517,0.0788295716047287,-0.15322890877723694,0.0586579404771328,8.076839447021484
1689018016833416051,-0.16511598229408264,-0.25353294610977173,0.07137271761894226,-0.2059013396501541,0.08259996026754379,8.121131896972656
1689018016843416051,-0.15872439742088318,-0.27057716250419617,0.05432848632335663,-0.26336216926574707,0.14844051003456116,8.254010200500488
1689018016852416051,-0.148071750998497,-0.28122982382774353,0.047936901450157166,-0.4058171808719635,0.32202011346817017,8.35336971282959
1689018016862416051,-0.1299622654914856,-0.28122982382774353,0.05432848632335663,-0.5219359397888184,0.46327802538871765,8.434772491455078
1689018016872416051,-0.10759171098470688,-0.27590349316596985,0.06604639440774918,-0.5518634915351868,0.5422866940498352,8.517372131347656
1689018016881416051,-0.08522115647792816,-0.2652508318424225,0.07669904083013535,-0.5734112858772278,0.6141127347946167,8.586804389953613
1689018016891416051,-0.06178533658385277,-0.25246766209602356,0.08415588736534119,-0.5734112858772278,0.7134720683097839,8.69214916229248
1689018016900416051,-0.037284255027770996,-0.24288028478622437,0.092678003013134,-0.5147533416748047,0.7960720658302307,8.858546257019043
1689018016910416051,-0.012783173471689224,-0.2407497614622116,0.092678003013134,-0.4381389021873474,0.8056488633155823,9.060855865478516
1689018016919416051,0.01065264455974102,-0.24394555389881134,0.07989483326673508,-0.38067805767059326,0.7577648162841797,9.26915168762207
1689018016929416051,0.03195793181657791,-0.25246766209602356,0.06817692518234253,-0.3818751573562622,0.7074865698814392,9.457096099853516
1689018016939416051,0.055393751710653305,-0.258859246969223,0.05432848632335663,-0.4692635238170624,0.6775590777397156,9.641449928283691
1689018016948416051,0.07776430249214172,-0.2599245309829712,0.03621898964047432,-0.5650315880775452,0.6823474764823914,9.842562675476074
1689018016958416051,0.1022653877735138,-0.25779399275779724,0.015978965908288956,-0.628477931022644,0.7422025203704834,10.02691650390625
1689018016967416051,0.13209278881549835,-0.24820661544799805,0.00532632227987051,-0.6596025824546814,0.8140285611152649,10.146626472473145
1689018016977416051,0.1619201898574829,-0.23435817658901215,-0.002130528911948204,-0.6320692300796509,0.849941611289978,10.256759643554688
1689018016986416051,0.18748654425144196,-0.21624867618083954,-0.01065264455974102,-0.5554547905921936,0.8655039072036743,10.405200004577637
1689018016996416051,0.20772656798362732,-0.1949433982372284,-0.012783173471689224,-0.4513069987297058,0.8822633028030396,10.538078308105469
1689018017006416051,0.222640261054039,-0.1715075671672821,-0.017044231295585632,-0.295683890581131,0.9014168977737427,10.654197692871094
1689018017015416051,0.23116238415241241,-0.15020228922367096,-0.02556634694337845,-0.12090718746185303,0.8607155084609985,10.814608573913574
1689018017025416051,0.22903186082839966,-0.13528858125209808,-0.04261057823896408,-0.013168109580874443,0.7422025203704834,11.02051067352295
1689018017035416051,0.21944446861743927,-0.12144014239311218,-0.06924218684434891,0.0035913025494664907,0.6009446382522583,11.221623420715332
1689018017044416051,0.2034655064344406,-0.11078750342130661,-0.09587380290031433,0.005985504016280174,0.40462008118629456,11.413159370422363
1689018017054416051,0.18216021358966827,-0.1022653877735138,-0.11824434995651245,0.017956512048840523,0.17717091739177704,11.60708999633789
1689018017063416051,0.1576591432094574,-0.09587380290031433,-0.12889699637889862,-0.0071826050989329815,0.010773907415568829,11.767500877380371
1689018017073416051,0.13528858125209808,-0.0884169489145279,-0.11717908829450607,-0.08978256583213806,0.0071826050989329815,11.860875129699707
1689018017082416051,0.12357067316770554,-0.0788295716047287,-0.07030745595693588,-0.14484919607639313,0.22505494952201843,11.900379180908203
1689018017092416051,0.12250541150569916,-0.06711165606975555,0.0,-0.020350713282823563,0.41778817772865295,11.941081047058105
1689018017102416051,0.1203748807311058,-0.06391586363315582,0.0511326938867569,0.2609679698944092,0.33518823981285095,11.999738693237305
1689018017111416051,0.10333064943552017,-0.07030745595693588,0.058589544147253036,0.5183446407318115,0.03950432687997818,12.073959350585938
1689018017120416051,0.06924218684434891,-0.08309062570333481,0.03302319720387459,0.6775590777397156,-0.27054479718208313,12.173317909240723
1689018017130416051,0.02130528911948204,-0.09693906456232071,-0.009587380103766918,0.7876923680305481,-0.5279214382171631,12.197259902954102
1689018017140416051,-0.03834952041506767,-0.10865697264671326,-0.05965480953454971,0.8870517015457153,-0.7745242118835449,12.067973136901855
1689018017150416051,-0.10120011866092682,-0.11398329585790634,-0.10759171098470688,0.912190854549408,-1.0031704902648926,11.840524673461914
1689018017159416051,-0.16298545897006989,-0.11078750342130661,-0.14061491191387177,0.8367734551429749,-1.1623848676681519,11.568782806396484
1689018017168416051,-0.21411815285682678,-0.09693906456232071,-0.14487595856189728,0.7422025203704834,-1.1767500638961792,11.23718547821045
1689018017178416051,-0.24820661544799805,-0.07350324839353561,-0.11930961906909943,0.7098807692527771,-1.0438718795776367,10.84094524383545
1689018017188416051,-0.2631203234195709,-0.04367584362626076,-0.07350324839353561,0.7170634269714355,-0.811634361743927,10.445901870727539
1689018017198416051,-0.25672873854637146,-0.01065264455974102,-0.019174760207533836,0.689530074596405,-0.5554547905921936,10.11669921875
1689018017207416051,-0.23861923813819885,0.02556634694337845,0.04048004746437073,0.6404489278793335,-0.34835633635520935,9.908403396606445
1689018017216416051,-0.2130528837442398,0.05965480953454971,0.09161274135112762,0.6440402269363403,-0.20231004059314728,9.827000617980957
1689018017226416051,-0.18748654425144196,0.08628641813993454,0.11930961906909943,0.7218518257141113,-0.16400282084941864,9.804255485534668
1689018017235416051,-0.16618125140666962,0.1022653877735138,0.11824434995651245,0.8152256608009338,-0.22864626348018646,9.75397777557373
1689018017246416051,-0.15233281254768372,0.11078750342130661,0.0884169489145279,0.9145850539207458,-0.3172317147254944,9.692925453186035
1689018017255416051,-0.1438107043504715,0.10865697264671326,0.03195793181657791,1.0223240852355957,-0.3734954595565796,9.634267807006836
1689018017264416051,-0.13635385036468506,0.09800432622432709,-0.037284255027770996,1.036689281463623,-0.4082113802433014,9.493009567260742
1689018017274416051,-0.13102751970291138,0.08628641813993454,-0.1022653877735138,0.9816226959228516,-0.4381389021873474,9.285911560058594
1689018017283416051,-0.12889699637889862,0.07137271761894226,-0.15552860498428345,0.9493009448051453,-0.47405192255973816,9.11352825164795
1689018017293416051,-0.1299622654914856,0.05432848632335663,-0.19600865244865417,0.9253589510917664,-0.4991910457611084,8.941145896911621
1689018017303416051,-0.13315805792808533,0.03515372797846794,-0.22157500684261322,0.8487445116043091,-0.5051765441894531,8.725667953491211
1689018017312416051,-0.13848437368869781,0.01810949482023716,-0.23329290747642517,0.7134720683097839,-0.50876784324646,8.549694061279297
1689018017322416051,-0.14700649678707123,0.004261057823896408,-0.23542344570159912,0.5734112858772278,-0.5207388401031494,8.44554615020752
1689018017331416051,-0.15659387409687042,-0.006391586735844612,-0.222640261054039,0.4297592043876648,-0.569819986820221,8.390480041503906
1689018017341416051,-0.16618125140666962,-0.013848437927663326,-0.2087918221950531,0.3076549172401428,-0.6272808313369751,8.394070625305176
1689018017350416051,-0.16937704384326935,-0.01810949482023716,-0.19813919067382812,0.21188685297966003,-0.6643909811973572,8.373720169067383
1689018017361416051,-0.16618125140666962,-0.01810949482023716,-0.1810949593782425,0.1364694982767105,-0.6428431272506714,8.288725852966309
1689018017370416051,-0.1533980816602707,-0.012783173471689224,-0.15659387409687042,0.1149216815829277,-0.5566518902778625,8.155847549438477
1689018017379416051,-0.12357067316770554,-0.004261057823896408,-0.1395496428012848,0.10893617570400238,-0.4405331015586853,8.019378662109375
1689018017389416051,-0.08202536404132843,0.006391586735844612,-0.12250541150569916,0.15083470940589905,-0.31124621629714966,7.924807548522949
1689018017398416051,-0.03302319720387459,0.013848437927663326,-0.1065264418721199,0.22266075015068054,-0.1759738177061081,7.838616371154785
1689018017409416051,0.023435818031430244,0.015978965908288956,-0.09161274135112762,0.2621650695800781,-0.03711012750864029,7.82185697555542
1689018017418416051,0.08202536404132843,0.014913702383637428,-0.07563377171754837,0.2669534981250763,0.02753331884741783,7.904456615447998
1689018017428416051,0.1342233121395111,0.015978965908288956,-0.06178533658385277,0.22505494952201843,0.04189852997660637,8.040925979614258
1689018017437416051,0.18002969026565552,0.017044231295585632,-0.052197955548763275,0.1759738177061081,0.061052143573760986,8.176198959350586
1689018017446416051,0.22370553016662598,0.02130528911948204,-0.04367584362626076,0.15801730751991272,0.10175357013940811,8.270770072937012
1689018017456416051,0.2652508318424225,0.02876213937997818,-0.037284255027770996,0.1364694982767105,0.19153612852096558,8.384493827819824
1689018017465416051,0.30360037088394165,0.03195793181657791,-0.041545312851667404,0.14006079733371735,0.3172317147254944,8.517372131347656
1689018017476416051,0.33555829524993896,0.03302319720387459,-0.06391586363315582,0.1711854189634323,0.39624038338661194,8.676587104797363
1689018017484416051,0.35473304986953735,0.02876213937997818,-0.09587380290031433,0.1364694982767105,0.4082113802433014,8.913612365722656
1689018017494416051,0.35899412631988525,0.017044231295585632,-0.1299622654914856,0.07661445438861847,0.3998316824436188,9.17697525024414
1689018017504416051,0.3526025414466858,-0.001065264455974102,-0.15233281254768372,0.0694318488240242,0.35673603415489197,9.364919662475586
1689018017513416051,0.33555829524993896,-0.02130528911948204,-0.15872439742088318,0.08619125932455063,0.30526071786880493,9.430760383605957
1689018017523416051,0.31212249398231506,-0.037284255027770996,-0.15552860498428345,0.10175357013940811,0.2753331959247589,9.440337181091309
1689018017532416051,0.28549087047576904,-0.047936901450157166,-0.14168016612529755,0.11372458189725876,0.28730419278144836,9.455899238586426
1689018017542416051,0.25672873854637146,-0.05326322093605995,-0.11504855751991272,0.11013327538967133,0.3387795388698578,9.526528358459473
1689018017552416051,0.22583605349063873,-0.055393751710653305,-0.08309062570333481,0.08499415963888168,0.39863458275794983,9.676165580749512
1689018017561416051,0.19281286001205444,-0.05432848632335663,-0.047936901450157166,0.06224924325942993,0.456095427274704,9.855731010437012
1689018017571416051,0.15659387409687042,-0.05326322093605995,-0.012783173471689224,0.11013327538967133,0.48123452067375183,10.046070098876953
1689018017581416051,0.11824434995651245,-0.055393751710653305,0.022370552644133568,0.23822306096553802,0.47405192255973816,10.254365921020508
1689018017590416051,0.08202536404132843,-0.05645901337265968,0.05432848632335663,0.35314473509788513,0.4213795065879822,10.4542818069458
1689018017600416051,0.04261057823896408,-0.055393751710653305,0.08096009492874146,0.40940847992897034,0.304063618183136,10.666168212890625
1689018017609416051,-0.001065264455974102,-0.052197955548763275,0.09587380290031433,0.44173020124435425,0.1759738177061081,10.9307279586792
1689018017619416051,-0.04261057823896408,-0.04580637067556381,0.09693906456232071,0.4537012279033661,0.09816227108240128,11.174936294555664
1689018017628416051,-0.07563377171754837,-0.03302319720387459,0.09480853378772736,0.38307225704193115,0.11372458189725876,11.32577133178711
1689018017638416051,-0.09374327212572098,-0.013848437927663326,0.10865697264671326,0.23822306096553802,0.28131869435310364,11.403582572937012
1689018017648991998,-0.09054747968912125,0.009587380103766918,0.15020228922367096,0.1412578970193863,0.5135562419891357,11.438298225402832
1689018017657991998,-0.07243797928094864,0.03195793181657791,0.19281286001205444,0.15442600846290588,0.6141127347946167,11.51611042022705
1689018017667991998,-0.05006742849946022,0.04261057823896408,0.20240023732185364,0.24899697303771973,0.5135562419891357,11.724405288696289
1689018017676991998,-0.03941478580236435,0.04048004746437073,0.1672465205192566,0.32202011346817017,0.23942016065120697,12.02966594696045
1689018017686991998,-0.047936901450157166,0.027696875855326653,0.10013485699892044,0.2669534981250763,-0.1496376097202301,12.319364547729492
1689018017695991998,-0.07456851005554199,0.007456851191818714,0.02556634694337845,0.08140285313129425,-0.5434837937355042,12.443862915039062
1689018017705991998,-0.11185276508331299,-0.009587380103766918,-0.037284255027770996,-0.17477671802043915,-0.8032546639442444,12.376825332641602
1689018017715991998,-0.14913702011108398,-0.020240023732185364,-0.07563377171754837,-0.4273650050163269,-0.8846575021743774,12.18528938293457
1689018017724991998,-0.1768338978290558,-0.019174760207533836,-0.08202536404132843,-0.6200982332229614,-0.8379705548286438,11.895590782165527
1689018017734991998,-0.1906823366880417,-0.007456851191818714,-0.06178533658385277,-0.7314286231994629,-0.7254431247711182,11.562796592712402
1689018017743991998,-0.19174760580062866,0.012783173471689224,-0.019174760207533836,-0.773327112197876,-0.5829880833625793,11.240777015686035
1689018017753991998,-0.17896442115306854,0.03621898964047432,0.03621898964047432,-0.7350199222564697,-0.45489832758903503,10.988188743591309
1689018017762991998,-0.15978966653347015,0.05965480953454971,0.0884169489145279,-0.6787561774253845,-0.3842693567276001,10.812214851379395
1689018017772991998,-0.13848437368869781,0.07989483326673508,0.13315805792808533,-0.7062894701957703,-0.3495534360408783,10.684124946594238
1689018017782991998,-0.11930961906909943,0.09906959533691406,0.1619201898574829,-0.7852981686592102,-0.3543418347835541,10.5715970993042
1689018017791991998,-0.10439591109752655,0.11824434995651245,0.17257283627986908,-0.8822633028030396,-0.35314473509788513,10.473435401916504
1689018017801991998,-0.09161274135112762,0.13528858125209808,0.1672465205192566,-0.9493009448051453,-0.29448679089546204,10.396821022033691
1689018017810991998,-0.07989483326673508,0.14594122767448425,0.15233281254768372,-0.9576806426048279,-0.2214636504650116,10.310629844665527
1689018017820991998,-0.07137271761894226,0.15233281254768372,0.1257012039422989,-0.95528644323349,-0.16759411990642548,10.213664054870605
1689018017829991998,-0.06604639440774918,0.15446333587169647,0.08948221057653427,-0.93254154920578,-0.16759411990642548,10.068815231323242
1689018017839991998,-0.06285060197114944,0.15233281254768372,0.04261057823896408,-0.8774749040603638,-0.1628057062625885,9.8784761428833
1689018017849991998,-0.06072007119655609,0.14594122767448425,-0.011717909015715122,-0.8271966576576233,-0.14604629576206207,9.678560256958008
1689018017858991998,-0.06285060197114944,0.14274543523788452,-0.07456851005554199,-0.7709329128265381,-0.16639702022075653,9.48343276977539
1689018017868991998,-0.07137271761894226,0.14274543523788452,-0.13741911947727203,-0.7242460250854492,-0.21188685297966003,9.295488357543945
1689018017877991998,-0.08628641813993454,0.15126754343509674,-0.1906823366880417,-0.6727706789970398,-0.29448679089546204,9.10993766784668
1689018017887991998,-0.1065264418721199,0.16405072808265686,-0.22796659171581268,-0.5949591398239136,-0.42616790533065796,8.894458770751953
1689018017897991998,-0.13209278881549835,0.17789916694164276,-0.24714134633541107,-0.5183446407318115,-0.5889735817909241,8.656235694885254
1689018017906991998,-0.1576591432094574,0.1896170675754547,-0.24394555389881134,-0.4345476031303406,-0.7350199222564697,8.431180953979492
1689018017916991998,-0.18002969026565552,0.19707392156124115,-0.22477079927921295,-0.36750996112823486,-0.8236053586006165,8.20851993560791
1689018017926991998,-0.19600865244865417,0.20133498311042786,-0.19707392156124115,-0.33279404044151306,-0.834379255771637,8.001421928405762
1689018017935991998,-0.20133498311042786,0.20559602975845337,-0.1619201898574829,-0.32680851221084595,-0.7781155109405518,7.8314337730407715
1689018017945991998,-0.1992044448852539,0.20772656798362732,-0.12144014239311218,-0.33039984107017517,-0.6967126727104187,7.718905925750732
1689018017954991998,-0.18855179846286774,0.21092236042022705,-0.07989483326673508,-0.3232172131538391,-0.5985504388809204,7.649474143981934
1689018017964991998,-0.1715075671672821,0.2130528837442398,-0.03621898964047432,-0.33997663855552673,-0.5039794445037842,7.603984355926514
1689018017973991998,-0.14913702011108398,0.21411815285682678,0.009587380103766918,-0.424970805644989,-0.4405331015586853,7.592013359069824
1689018017983991998,-0.1257012039422989,0.2130528837442398,0.058589544147253036,-0.5530605912208557,-0.3902548849582672,7.6315178871154785
1689018017993991998,-0.10439591109752655,0.20666129887104034,0.11291802674531937,-0.6931213736534119,-0.2968810200691223,7.693767070770264
1689018018002991998,-0.0788295716047287,0.19600865244865417,0.15978966653347015,-0.8391676545143127,-0.1364694982767105,7.7655930519104
1689018018012991998,-0.0511326938867569,0.17789916694164276,0.18748654425144196,-0.8822633028030396,0.026336219161748886,7.899668216705322
1689018018021991998,-0.02556634694337845,0.15126754343509674,0.20240023732185364,-0.8212111592292786,0.13527239859104156,8.073247909545898
1689018018031991998,0.002130528911948204,0.11504855751991272,0.19387812912464142,-0.7984662652015686,0.21547815203666687,8.256404876708984
1689018018040991998,0.02876213937997818,0.07350324839353561,0.17044231295585632,-0.8271966576576233,0.2992752194404602,8.434772491455078
1689018018050991998,0.05752427875995636,0.034088462591171265,0.148071750998497,-0.8403647541999817,0.4010287821292877,8.598774909973145
1689018018060991998,0.0884169489145279,-0.003195793367922306,0.12357067316770554,-0.8236053586006165,0.5351040959358215,8.767566680908203
1689018018069991998,0.12144014239311218,-0.037284255027770996,0.10013485699892044,-0.7864952683448792,0.6560112833976746,8.935160636901855
1689018018079991998,0.1533980816602707,-0.07243797928094864,0.0788295716047287,-0.7146691679954529,0.7074865698814392,9.121908187866211
1689018018088991998,0.18002969026565552,-0.10865697264671326,0.06285060197114944,-0.6308721303939819,0.7182605266571045,9.333795547485352
1689018018098991998,0.2045307755470276,-0.14594122767448425,0.047936901450157166,-0.5446808934211731,0.730231523513794,9.5408935546875
1689018018108991998,0.2269013226032257,-0.18216021358966827,0.02556634694337845,-0.5255272388458252,0.7410054206848145,9.738415718078613
1689018018117991998,0.2460760921239853,-0.21411815285682678,-0.014913702383637428,-0.5566518902778625,0.690727174282074,9.93593692779541
1689018018126991998,0.260989785194397,-0.24181503057479858,-0.07137271761894226,-0.5374982953071594,0.5734112858772278,10.133458137512207
1689018018136991998,0.27164241671562195,-0.2652508318424225,-0.12463594228029251,-0.49799394607543945,0.38067805767059326,10.368090629577637
1689018018146991998,0.27057716250419617,-0.2865561246871948,-0.1672465205192566,-0.44412440061569214,0.07302314788103104,10.65898609161377
1689018018156991998,0.2514024078845978,-0.30466562509536743,-0.19600865244865417,-0.37828385829925537,-0.2968810200691223,10.976217269897461
1689018018165991998,0.21624867618083954,-0.3185140788555145,-0.21198762953281403,-0.31603461503982544,-0.6380547285079956,11.294646263122559
1689018018174991998,0.16405072808265686,-0.3291667103767395,-0.21624867618083954,-0.28969839215278625,-0.8271966576576233,11.597513198852539
1689018018184991998,0.10865697264671326,-0.33555829524993896,-0.1992044448852539,-0.3315969407558441,-0.7948749661445618,11.836933135986328
1689018018194991998,0.06072007119655609,-0.3344930410385132,-0.15020228922367096,-0.36152446269989014,-0.629675030708313,11.963825225830078
1689018018203991998,0.020240023732185364,-0.33129724860191345,-0.08096009492874146,-0.2190694510936737,-0.5374982953071594,12.045228958129883
1689018018213991998,-0.019174760207533836,-0.3387540876865387,-0.04048004746437073,0.1304839849472046,-0.5770025849342346,12.18768310546875
1689018018223991998,-0.05965480953454971,-0.36432042717933655,-0.037284255027770996,0.48123452067375183,-0.6751648783683777,12.39957046508789
1689018018232991998,-0.10439591109752655,-0.3984088897705078,-0.05645901337265968,0.652419924736023,-0.8427590131759644,12.58152961730957
1689018018241991998,-0.1619201898574829,-0.42823630571365356,-0.08096009492874146,0.6943184733390808,-1.1180921792984009,12.629413604736328
1689018018251991998,-0.22903186082839966,-0.4410194754600525,-0.10759171098470688,0.6763619780540466,-1.4197615385055542,12.504915237426758
1689018018261991998,-0.29827404022216797,-0.43356263637542725,-0.12889699637889862,0.5781996846199036,-1.6196774244308472,12.22000503540039
1689018018271991998,-0.3579288423061371,-0.4037352204322815,-0.13315805792808533,0.4213795065879822,-1.6603788137435913,11.814188003540039
1689018018280991998,-0.399474173784256,-0.34940674901008606,-0.10972223430871964,0.28371289372444153,-1.5550339221954346,11.353303909301758
1689018018289991998,-0.4207794666290283,-0.27696874737739563,-0.06072007119655609,0.2298433631658554,-1.3539210557937622,10.931924819946289
1689018018299991998,-0.4207794666290283,-0.19600865244865417,0.001065264455974102,0.30526071786880493,-1.1264718770980835,10.594342231750488
1689018018308991998,-0.4037352204322815,-0.11824434995651245,0.055393751710653305,0.5386953949928284,-0.9277531504631042,10.406397819519043
1689018018319991998,-0.3771035969257355,-0.05326322093605995,0.092678003013134,0.788889467716217,-0.8391676545143127,10.33098030090332
1689018018328991998,-0.3472762107849121,-0.001065264455974102,0.09906959533691406,0.9516951441764832,-0.8259995579719543,10.351330757141113
1689018018337991998,-0.3185140788555145,0.04048004746437073,0.06604639440774918,1.0977414846420288,-0.8475474119186401,10.442310333251953
1689018018347991998,-0.29827404022216797,0.07243797928094864,0.009587380103766918,1.2042834758758545,-0.9349357485771179,10.472237586975098
1689018018357991998,-0.2865561246871948,0.10013485699892044,-0.05432848632335663,1.2198457717895508,-1.0678139925003052,10.392032623291016
1689018018367991998,-0.28549087047576904,0.12463594228029251,-0.11824434995651245,1.1982979774475098,-1.2078747749328613,10.217255592346191
1689018018375991998,-0.28975191712379456,0.14594122767448425,-0.17789916694164276,1.1456254720687866,-1.280897855758667,9.989806175231934
1689018018386991998,-0.29401299357414246,0.16298545897006989,-0.22796659171581268,1.0630255937576294,-1.2844891548156738,9.757569313049316
1689018018395991998,-0.296143501996994,0.17257283627986908,-0.2641855776309967,0.993593692779541,-1.2665326595306396,9.556455612182617
1689018018404991998,-0.29507824778556824,0.17363810539245605,-0.2886866629123688,0.9397241473197937,-1.2294225692749023,9.352949142456055
1689018018414991998,-0.2865561246871948,0.16831177473068237,-0.3014698326587677,0.8690952062606812,-1.1851298809051514,9.135076522827148
1689018018424991998,-0.2727077007293701,0.16085493564605713,-0.296143501996994,0.7829039692878723,-1.1779471635818481,8.918400764465332
1689018018433991998,-0.2545982003211975,0.15233281254768372,-0.27590349316596985,0.6919242739677429,-1.2078747749328613,8.724471092224121
1689018018443991998,-0.23329290747642517,0.1438107043504715,-0.24501082301139832,0.5997475385665894,-1.2222399711608887,8.588001251220703
1689018018452991998,-0.20666129887104034,0.13102751970291138,-0.20985709130764008,0.5051765441894531,-1.1755529642105103,8.483853340148926
1689018018462991998,-0.17470337450504303,0.1161138266324997,-0.1715075671672821,0.42018237709999084,-1.1073182821273804,8.44434928894043
1689018018471991998,-0.1395496428012848,0.10333064943552017,-0.14168016612529755,0.33758243918418884,-1.0067617893218994,8.44554615020752
1689018018482991998,-0.10120011866092682,0.09374327212572098,-0.11504855751991272,0.2454056739807129,-0.8643068075180054,8.398859024047852
1689018018491991998,-0.055393751710653305,0.08735168725252151,-0.092678003013134,0.20111294090747833,-0.729034423828125,8.339004516601562
1689018018500991998,-0.007456851191818714,0.08628641813993454,-0.07669904083013535,0.17956513166427612,-0.5937620401382446,8.29471206665039
1689018018510991998,0.04367584362626076,0.08735168725252151,-0.06391586363315582,0.14724339544773102,-0.4620809257030487,8.256404876708984
1689018018519991998,0.09480853378772736,0.09374327212572098,-0.05326322093605995,0.1173158809542656,-0.34356793761253357,8.256404876708984
1689018018530991998,0.14168016612529755,0.10120011866092682,-0.049002163112163544,0.10055647045373917,-0.2346317619085312,8.31985092163086
1689018018539991998,0.18002969026565552,0.11078750342130661,-0.04687163606286049,0.11013327538967133,-0.15801730751991272,8.428787231445312
1689018018548991998,0.20772656798362732,0.1203748807311058,-0.052197955548763275,0.152031809091568,-0.09576806426048279,8.578424453735352
1689018018558991998,0.22583605349063873,0.13102751970291138,-0.0649811327457428,0.2190694510936737,-0.004788403399288654,8.71609115600586
1689018018567991998,0.2364886999130249,0.14168016612529755,-0.08415588736534119,0.2693476974964142,0.08738835901021957,8.848969459533691
1689018018577991998,0.2407497614622116,0.15233281254768372,-0.10546118021011353,0.2825157940387726,0.11372458189725876,8.9866361618042
1689018018587991998,0.23542344570159912,0.16298545897006989,-0.1257012039422989,0.28730419278144836,0.06344634294509888,9.11233139038086
1689018018596991998,0.22477079927921295,0.1715075671672821,-0.1395496428012848,0.26815059781074524,-0.013168109580874443,9.193734169006348
1689018018606991998,0.20985709130764008,0.17896442115306854,-0.14168016612529755,0.2238578498363495,-0.07302314788103104,9.240421295166016
1689018018615991998,0.1949433982372284,0.18429075181484222,-0.13528858125209808,0.19871874153614044,-0.0802057534456253,9.337386131286621
1689018018625991998,0.17789916694164276,0.185356006026268,-0.12250541150569916,0.18076223134994507,-0.07422025501728058,9.461884498596191
1689018018634991998,0.16085493564605713,0.18322548270225525,-0.10546118021011353,0.14365209639072418,-0.06823474913835526,9.564835548400879
1689018018645991998,0.14700649678707123,0.1810949593782425,-0.08202536404132843,0.12210428714752197,-0.02992752008140087,9.643844604492188
1689018018653991998,0.1395496428012848,0.1768338978290558,-0.05752427875995636,0.16160860657691956,0.023942016065120697,9.719261169433594
1689018018663991998,0.13848437368869781,0.16937704384326935,-0.029827404767274857,0.22625206410884857,0.07062894850969315,9.807847023010254
1689018018673991998,0.1438107043504715,0.1576591432094574,-0.003195793367922306,0.28371289372444153,0.09816227108240128,9.926360130310059
1689018018682991998,0.1533980816602707,0.14168016612529755,0.020240023732185364,0.33518823981285095,0.1364694982767105,10.070012092590332
1689018018692991998,0.1672465205192566,0.12250541150569916,0.04261057823896408,0.386663556098938,0.13168108463287354,10.243592262268066
1689018018702991998,0.18002969026565552,0.10120011866092682,0.05432848632335663,0.42856210470199585,0.038307227194309235,10.473435401916504
1689018018711991998,0.18642127513885498,0.07563377171754837,0.05752427875995636,0.4405331015586853,-0.11372458189725876,10.732008934020996
1689018018721991998,0.1810949593782425,0.04687163606286049,0.0511326938867569,0.40222588181495667,-0.2932896912097931,10.986991882324219
1689018018730991998,0.16618125140666962,0.024501081556081772,0.041545312851667404,0.3124433159828186,-0.4213795065879822,11.200075149536133
1689018018740991998,0.15126754343509674,0.004261057823896408,0.04261057823896408,0.20949263870716095,-0.4106055796146393,11.33774185180664
1689018018749991998,0.14487595856189728,-0.01065264455974102,0.06285060197114944,0.14365209639072418,-0.2908954918384552,11.409567832946777
1689018018759991998,0.14487595856189728,-0.022370552644133568,0.092678003013134,0.12210428714752197,-0.2059013396501541,11.492168426513672
1689018018768991998,0.14487595856189728,-0.037284255027770996,0.10759171098470688,0.10893617570400238,-0.264559268951416,11.657367706298828
1689018018778991998,0.13315805792808533,-0.05752427875995636,0.09693906456232071,0.07422025501728058,-0.5015852451324463,11.93629264831543
1689018018788991998,0.10120011866092682,-0.08309062570333481,0.06817692518234253,-0.017956512048840523,-0.871489405632019,12.306196212768555
1689018018797991998,0.04367584362626076,-0.11291802674531937,0.026631610468029976,-0.15083470940589905,-1.2832920551300049,12.63899040222168
1689018018807991998,-0.030892668291926384,-0.14168016612529755,-0.022370552644133568,-0.31603461503982544,-1.646013617515564,12.799402236938477
1689018018817991998,-0.11398329585790634,-0.16511598229408264,-0.05432848632335663,-0.49320554733276367,-1.8698714971542358,12.734758377075195
1689018018826991998,-0.1896170675754547,-0.17896442115306854,-0.06285060197114944,-0.6308721303939819,-1.909375786781311,12.473791122436523
1689018018836991998,-0.24820661544799805,-0.18322548270225525,-0.047936901450157166,-0.6883329749107361,-1.8255788087844849,12.09550666809082
1689018018845991998,-0.28442561626434326,-0.18002969026565552,-0.02130528911948204,-0.7038952708244324,-1.7154455184936523,11.718420028686523
1689018018855991998,-0.3014698326587677,-0.16937704384326935,0.017044231295585632,-0.7230489253997803,-1.6352397203445435,11.373655319213867
1689018018864991998,-0.3014698326587677,-0.1533980816602707,0.06178533658385277,-0.7912836670875549,-1.5765818357467651,11.12465763092041
1689018018874991998,-0.2929477095603943,-0.13528858125209808,0.10759171098470688,-0.8631097078323364,-1.5382745265960693,10.885237693786621
1689018018884991998,-0.27590349316596985,-0.11398329585790634,0.14594122767448425,-0.9253589510917664,-1.48081374168396,10.645817756652832
1689018018893991998,-0.2556634545326233,-0.09161274135112762,0.18748654425144196,-0.9876081943511963,-1.4460978507995605,10.500968933105469
1689018018903991998,-0.23755396902561188,-0.06924218684434891,0.21518342196941376,-1.015141487121582,-1.4269441366195679,10.341753959655762
1689018018912991998,-0.22050973773002625,-0.04687163606286049,0.23329290747642517,-1.0749965906143188,-1.2665326595306396,10.213664054870605
1689018018922991998,-0.19600865244865417,-0.02556634694337845,0.24181503057479858,-1.0857704877853394,-1.0067617893218994,10.075997352600098
1689018018931991998,-0.16618125140666962,-0.008522115647792816,0.23116238415241241,-0.9852139949798584,-0.7912836670875549,9.908403396606445
1689018018941991998,-0.13528858125209808,0.0,0.21198762953281403,-0.8762778043746948,-0.6787561774253845,9.78989028930664
1689018018951991998,-0.10865697264671326,0.004261057823896408,0.1896170675754547,-0.8032546639442444,-0.6488286256790161,9.657011985778809
1689018018960991998,-0.09054747968912125,0.004261057823896408,0.16298545897006989,-0.7386112213134766,-0.6931213736534119,9.509769439697266
1689018018970991998,-0.08309062570333481,0.0,0.13209278881549835,-0.6584054827690125,-0.7769184112548828,9.387664794921875
1689018018979991998,-0.08096009492874146,-0.009587380103766918,0.1022653877735138,-0.5781996846199036,-0.8702923059463501,9.257181167602539
1689018018989991998,-0.08735168725252151,-0.020240023732185364,0.07776430249214172,-0.5015852451324463,-0.9576806426048279,9.065644264221191
1689018018998991998,-0.09693906456232071,-0.030892668291926384,0.06711165606975555,-0.37828385829925537,-1.037886381149292,8.813055992126465
1689018019008991998,-0.10759171098470688,-0.04048004746437073,0.06711165606975555,-0.25977087020874023,-1.0989385843276978,8.544905662536621
1689018019018991998,-0.11824434995651245,-0.04580637067556381,0.0788295716047287,-0.18794482946395874,-1.1324573755264282,8.29830265045166
1689018019027991998,-0.12463594228029251,-0.04580637067556381,0.09906959533691406,-0.1173158809542656,-1.1348515748977661,8.063671112060547
1689018019037991998,-0.12357067316770554,-0.04367584362626076,0.12250541150569916,-0.05626373738050461,-1.0678139925003052,7.8314337730407715
1689018019047991998,-0.11398329585790634,-0.03941478580236435,0.14487595856189728,-0.019153613597154617,-0.9277531504631042,7.618349552154541
1689018019056991998,-0.09054747968912125,-0.03515372797846794,0.1619201898574829,0.0071826050989329815,-0.7386112213134766,7.441178798675537
1689018019065991998,-0.05645901337265968,-0.03195793181657791,0.1715075671672821,0.033518824726343155,-0.5315127968788147,7.321468830108643
1689018019075991998,-0.013848437927663326,-0.027696875855326653,0.17044231295585632,0.07302314788103104,-0.35314473509788513,7.249642848968506
1689018019085991998,0.03302319720387459,-0.024501081556081772,0.1619201898574829,0.09816227108240128,-0.21188685297966003,7.250839710235596
1689018019094991998,0.0788295716047287,-0.020240023732185364,0.148071750998497,0.06823474913835526,-0.11252747476100922,7.350199222564697
1689018019104991998,0.11824434995651245,-0.012783173471689224,0.13102751970291138,-0.008379706181585789,-0.06224924325942993,7.4998369216918945
1689018019113991998,0.14913702011108398,-0.004261057823896408,0.11717908829450607,-0.07661445438861847,-0.02753331884741783,7.677007675170898
1689018019123991998,0.1715075671672821,0.002130528911948204,0.10759171098470688,-0.09217676520347595,0.015562310814857483,7.854178428649902
1689018019133991998,0.19174760580062866,0.003195793367922306,0.09693906456232071,-0.07182604819536209,0.07062894850969315,8.0145902633667
1689018019142991998,0.20985709130764008,-0.003195793367922306,0.0788295716047287,-0.047884032130241394,0.1304839849472046,8.194154739379883
1689018019152991998,0.22583605349063873,-0.017044231295585632,0.0511326938867569,-0.02274491637945175,0.17238251864910126,8.440757751464844
1689018019161991998,0.23968449234962463,-0.037284255027770996,0.020240023732185364,-0.023942016065120697,0.20949263870716095,8.753201484680176
1689018019171991998,0.2514024078845978,-0.06285060197114944,-0.012783173471689224,-0.04668693244457245,0.2669534981250763,9.051279067993164
1689018019181991998,0.26205503940582275,-0.092678003013134,-0.04367584362626076,-0.06703764945268631,0.32680851221084595,9.313444137573242
1689018019190991998,0.2695119082927704,-0.12463594228029251,-0.07030745595693588,-0.10055647045373917,0.3411737382411957,9.578003883361816
1689018019200991998,0.2684466242790222,-0.1576591432094574,-0.08948221057653427,-0.1280897855758667,0.31124621629714966,9.832985877990723
1689018019209991998,0.2599245309829712,-0.18748654425144196,-0.10333064943552017,-0.14604629576206207,0.28969839215278625,10.052055358886719
1689018019219991998,0.24501082301139832,-0.2130528837442398,-0.11078750342130661,-0.16160860657691956,0.3076549172401428,10.229227066040039
1689018019228991998,0.22903186082839966,-0.23542344570159912,-0.11398329585790634,-0.15921440720558167,0.3292027413845062,10.384849548339844
1689018019238991998,0.2130528837442398,-0.25353294610977173,-0.1161138266324997,-0.11971008032560349,0.3100491166114807,10.542866706848145
1689018019247991998,0.1949433982372284,-0.27057716250419617,-0.12250541150569916,-0.03232172131538391,0.264559268951416,10.69370174407959
1689018019257991998,0.1768338978290558,-0.2918824553489685,-0.13102751970291138,0.07541735470294952,0.21547815203666687,10.846930503845215
1689018019267991998,0.1576591432094574,-0.31318774819374084,-0.14168016612529755,0.15921440720558167,0.152031809091568,11.014524459838867
1689018019276991998,0.1342233121395111,-0.3302319645881653,-0.15126754343509674,0.19871874153614044,0.03232172131538391,11.172541618347168
1689018019286991998,0.10333064943552017,-0.3419498801231384,-0.16405072808265686,0.1867477297782898,-0.14844051003456116,11.323376655578613
1689018019296991998,0.0649811327457428,-0.34621095657348633,-0.1768338978290558,0.15682020783424377,-0.31603461503982544,11.487380027770996
1689018019305991998,0.024501081556081772,-0.3419498801231384,-0.18429075181484222,0.11851298063993454,-0.4106055796146393,11.626243591308594
1689018019314991998,-0.011717909015715122,-0.3291667103767395,-0.17896442115306854,0.05626373738050461,-0.386663556098938,11.719616889953613
1689018019324991998,-0.037284255027770996,-0.30892667174339294,-0.148071750998497,0.014365210197865963,-0.23942016065120697,11.783063888549805
1689018019334991998,-0.05006742849946022,-0.2865561246871948,-0.10013485699892044,0.07661445438861847,-0.07182604819536209,11.854889869689941
1689018019344991998,-0.055393751710653305,-0.26738137006759644,-0.06817692518234253,0.3148375153541565,-0.033518824726343155,11.981781959533691
1689018019353991998,-0.06391586363315582,-0.258859246969223,-0.07669904083013535,0.6835445761680603,-0.18076223134994507,12.18768310546875
1689018019363991998,-0.08415588736534119,-0.25779399275779724,-0.1257012039422989,0.9852139949798584,-0.395043283700943,12.380416870117188
1689018019372991998,-0.11185276508331299,-0.2556634545326233,-0.18855179846286774,1.1348515748977661,-0.5997475385665894,12.411540985107422
1689018019382991998,-0.1438107043504715,-0.24394555389881134,-0.25672873854637146,1.161187767982483,-0.8236053586006165,12.254721641540527
1689018019392991998,-0.1757686287164688,-0.22370553016662598,-0.3142530024051666,1.071405291557312,-1.0977414846420288,11.963825225830078
1689018019401991998,-0.20133498311042786,-0.19281286001205444,-0.3579288423061371,0.9600748419761658,-1.2880804538726807,11.48259162902832
1689018019411991998,-0.2087918221950531,-0.15233281254768372,-0.3717772960662842,0.8631097078323364,-1.2497732639312744,10.912771224975586
1689018019420991998,-0.19387812912464142,-0.10439591109752655,-0.35473304986953735,0.7996633648872375,-1.072602391242981,10.396821022033691
1689018019430991998,-0.15552860498428345,-0.052197955548763275,-0.30786141753196716,0.8176198601722717,-0.8451532125473022,9.962272644042969
1689018019439991998,-0.09906959533691406,0.001065264455974102,-0.24714134633541107,0.910993754863739,-0.6356605291366577,9.704895973205566
1689018019449991998,-0.03941478580236435,0.0511326938867569,-0.18748654425144196,1.0031704902648926,-0.5219359397888184,9.673771858215332
1689018019458991998,0.011717909015715122,0.09374327212572098,-0.13741911947727203,1.058237075805664,-0.591367781162262,9.804255485534668
1689018019468991998,0.041545312851667404,0.12676647305488586,-0.11504855751991272,1.1480196714401245,-0.7829039692878723,9.951498985290527
1689018019478991998,0.05006742849946022,0.14487595856189728,-0.11930961906909943,1.256955862045288,-0.9169792532920837,10.030508041381836
1689018019487991998,0.04367584362626076,0.15126754343509674,-0.14700649678707123,1.3180080652236938,-0.9684545993804932,9.985017776489258
1689018019497991998,0.027696875855326653,0.15020228922367096,-0.19707392156124115,1.314416766166687,-0.9959878921508789,9.805453300476074
1689018019506991998,0.003195793367922306,0.14594122767448425,-0.25672873854637146,1.2952630519866943,-1.0223240852355957,9.5624418258667
1689018019516991998,-0.024501081556081772,0.13741911947727203,-0.31318774819374084,1.3000514507293701,-1.036689281463623,9.313444137573242
1689018019526991998,-0.055393751710653305,0.12250541150569916,-0.35473304986953735,1.2928688526153564,-1.037886381149292,9.068038940429688
1689018019535991998,-0.0884169489145279,0.1022653877735138,-0.3802993893623352,1.2258312702178955,-1.0330979824066162,8.856151580810547
1689018019545991998,-0.1203748807311058,0.07776430249214172,-0.3930825889110565,1.1504138708114624,-1.0079588890075684,8.689754486083984
1689018019554991998,-0.14594122767448425,0.05006742849946022,-0.3984088897705078,1.0546457767486572,-0.9133879542350769,8.543708801269531
1689018019564991998,-0.15978966653347015,0.023435818031430244,-0.3930825889110565,0.9205705523490906,-0.7829039692878723,8.343792915344238
1689018019574991998,-0.16405072808265686,0.001065264455974102,-0.3802993893623352,0.7398083209991455,-0.6440402269363403,8.13908863067627
1689018019583991998,-0.15659387409687042,-0.014913702383637428,-0.362189918756485,0.5303156971931458,-0.5063736438751221,7.999027729034424
1689018019592991998,-0.13848437368869781,-0.020240023732185364,-0.3398193418979645,0.3758896589279175,-0.40222588181495667,7.875726222991943
1689018019602991998,-0.11291802674531937,-0.02130528911948204,-0.3153182864189148,0.29209259152412415,-0.30047231912612915,7.7655930519104
1689018019612991998,-0.07776430249214172,-0.020240023732185364,-0.2886866629123688,0.2777273952960968,-0.19871874153614044,7.671021938323975
1689018019622991998,-0.03515372797846794,-0.01810949482023716,-0.258859246969223,0.3100491166114807,-0.1149216815829277,7.623137950897217
1689018019631991998,0.013848437927663326,-0.01810949482023716,-0.22370553016662598,0.35913026332855225,-0.05386953800916672,7.601590156555176
1689018019641991998,0.06604639440774918,-0.01810949482023716,-0.1896170675754547,0.39145198464393616,0.017956512048840523,7.587224960327148
1689018019650991998,0.12144014239311218,-0.01810949482023716,-0.16085493564605713,0.41778817772865295,0.10534487664699554,7.620743751525879
1689018019659991998,0.18002969026565552,-0.020240023732185364,-0.1342233121395111,0.46567222476005554,0.17956513166427612,7.6985554695129395
1689018019669991998,0.23968449234962463,-0.023435818031430244,-0.10972223430871964,0.5159504413604736,0.24420857429504395,7.771578788757324
1689018019679991998,0.3025350868701935,-0.02556634694337845,-0.08415588736534119,0.5207388401031494,0.27653029561042786,7.838616371154785
1689018019688991998,0.36005938053131104,-0.023435818031430244,-0.06604639440774918,0.4944026470184326,0.28371289372444153,7.99184513092041
1689018019698991998,0.4090615510940552,-0.02130528911948204,-0.052197955548763275,0.39624038338661194,0.2801215946674347,8.218096733093262
1689018019707991998,0.4442152678966522,-0.020240023732185364,-0.049002163112163544,0.23582886159420013,0.2849099934101105,8.537723541259766
1689018019718991998,0.46552056074142456,-0.020240023732185364,-0.05752427875995636,0.05027823522686958,0.3016694188117981,8.924386978149414
1689018019726991998,0.46658581495285034,-0.017044231295585632,-0.07776430249214172,-0.1388636976480484,0.2885012924671173,9.385270118713379
1689018019737991998,0.45167210698127747,-0.008522115647792816,-0.09374327212572098,-0.20709843933582306,0.2753331959247589,9.804255485534668
1689018019746991998,0.4218447208404541,0.002130528911948204,-0.10333064943552017,-0.13766659796237946,0.25498247146606445,10.018536567687988
1689018019755991998,0.3834952116012573,0.011717909015715122,-0.09587380290031433,-0.005985504016280174,0.17477671802043915,10.157400131225586
1689018019766991998,0.3344930410385132,0.01810949482023716,-0.06178533658385277,0.15322890877723694,0.06823474913835526,10.259154319763184
1689018019775991998,0.2822950780391693,0.024501081556081772,-0.00532632227987051,0.27892449498176575,0.008379706181585789,10.336965560913086
1689018019784991998,0.23116238415241241,0.03515372797846794,0.06711165606975555,0.37229835987091064,0.02274491637945175,10.413579940795898
1689018019794991998,0.18429075181484222,0.05006742849946022,0.14061491191387177,0.46567222476005554,0.10055647045373917,10.448295593261719
1689018019803991998,0.14594122767448425,0.07030745595693588,0.21092236042022705,0.5626373887062073,0.21547815203666687,10.530896186828613
1689018019813991998,0.11930961906909943,0.09693906456232071,0.2684466242790222,0.6799532771110535,0.3172317147254944,10.644620895385742
1689018019822991998,0.1022653877735138,0.1257012039422989,0.30892667174339294,0.811634361743927,0.333991140127182,10.735600471496582
1689018019832991998,0.092678003013134,0.1533980816602707,0.3302319645881653,0.9409212470054626,0.25258827209472656,10.898406028747559
1689018019842991998,0.08202536404132843,0.17789916694164276,0.33129724860191345,1.0450689792633057,0.13766659796237946,11.109095573425293
1689018019851991998,0.06924218684434891,0.19707392156124115,0.31318774819374084,1.0857704877853394,0.06823474913835526,11.30422306060791
1689018019861991998,0.058589544147253036,0.2130528837442398,0.287621408700943,1.0462660789489746,0.10773907601833344,11.4634370803833
1689018019870991998,0.05432848632335663,0.22583605349063873,0.258859246969223,1.0426747798919678,0.16639702022075653,11.615468978881836
1689018019881991998,0.04687163606286049,0.22583605349063873,0.21518342196941376,1.161187767982483,0.1173158809542656,11.839326858520508
1689018019890991998,0.027696875855326653,0.20985709130764008,0.15659387409687042,1.3060369491577148,-0.11611878126859665,12.222399711608887
1689018019899991998,-0.020240023732185364,0.17896442115306854,0.09054747968912125,1.3180080652236938,-0.5530605912208557,12.723984718322754
1689018019909991998,-0.09800432622432709,0.14061491191387177,0.03834952041506767,1.1994950771331787,-1.091755986213684,13.141773223876953
1689018019918991998,-0.19813919067382812,0.10439591109752655,0.006391586735844612,0.9864110946655273,-1.5502455234527588,13.320140838623047
1689018019928991998,-0.30360037088394165,0.07989483326673508,-0.011717909015715122,0.6643909811973572,-1.768117904663086,13.268665313720703
1689018019937991998,-0.39627838134765625,0.06924218684434891,-0.022370552644133568,0.30526071786880493,-1.7525556087493896,13.043610572814941
1689018019948991998,-0.4633900225162506,0.07137271761894226,-0.02130528911948204,-0.005985504016280174,-1.6172832250595093,12.680889129638672
1689018019957991998,-0.5049353241920471,0.08735168725252151,-0.00532632227987051,-0.18794482946395874,-1.460463047027588,12.257115364074707
1689018019966991998,-0.521979570388794,0.10972223430871964,0.017044231295585632,-0.24061726033687592,-1.3239935636520386,11.850101470947266
1689018019976991998,-0.5187838077545166,0.13528858125209808,0.04048004746437073,-0.22026655077934265,-1.2210428714752197,11.514912605285645
1689018019985991998,-0.5028048157691956,0.15872439742088318,0.06178533658385277,-0.17956513166427612,-1.136048674583435,11.320982933044434
1689018019995991998,-0.4783037304878235,0.18002969026565552,0.07669904083013535,-0.12928688526153564,-1.1109095811843872,11.155782699584961
1689018020005991998,-0.45167210698127747,0.1992044448852539,0.08309062570333481,-0.1256955862045288,-1.1528080701828003,10.925939559936523
1689018020014991998,-0.42504051327705383,0.21944446861743927,0.08415588736534119,-0.23582886159420013,-1.2006921768188477,10.732008934020996
1689018020024991998,-0.4026699662208557,0.23755396902561188,0.08202536404132843,-0.41539397835731506,-1.2617442607879639,10.57040023803711
1689018020033991998,-0.3845604658126831,0.25779399275779724,0.07456851005554199,-0.591367781162262,-1.338358759880066,10.339360237121582
1689018020043991998,-0.36964675784111023,0.28122982382774353,0.06817692518234253,-0.7445967197418213,-1.3718775510787964,10.065223693847656
1689018020052991998,-0.35473304986953735,0.3067961633205414,0.06924218684434891,-0.8427590131759644,-1.382651448249817,9.822212219238281
1689018020062991998,-0.3387540876865387,0.3302319645881653,0.07776430249214172,-0.8619126081466675,-1.3682862520217896,9.581595420837402
1689018020072991998,-0.3206445872783661,0.34940674901008606,0.08522115647792816,-0.8307879567146301,-1.3096283674240112,9.32541561126709
1689018020081991998,-0.3014698326587677,0.36325517296791077,0.0884169489145279,-0.7817068696022034,-1.2641384601593018,9.095572471618652
1689018020091991998,-0.2822950780391693,0.3717772960662842,0.09054747968912125,-0.727837324142456,-1.238999366760254,8.9064302444458
1689018020100991998,-0.2641855776309967,0.37284255027770996,0.09480853378772736,-0.6416460275650024,-1.2473790645599365,8.72806167602539
1689018020110991998,-0.24927188456058502,0.36858150362968445,0.1022653877735138,-0.5303156971931458,-1.2701239585876465,8.543708801269531
1689018020119991998,-0.23435817658901215,0.3568635880947113,0.11824434995651245,-0.41778817772865295,-1.279700756072998,8.358158111572266
1689018020129991998,-0.22050973773002625,0.3398193418979645,0.1342233121395111,-0.3100491166114807,-1.2856862545013428,8.190564155578613
1689018020139991998,-0.20985709130764008,0.3185140788555145,0.14168016612529755,-0.21428105235099792,-1.2976572513580322,8.037335395812988
1689018020148262054,-0.19813919067382812,0.2918824553489685,0.14061491191387177,-0.14006079733371735,-1.2988543510437012,7.906850814819336
1689018020158262054,-0.18642127513885498,0.258859246969223,0.1342233121395111,-0.10055647045373917,-1.2713210582733154,7.8098859786987305
1689018020167262054,-0.16937704384326935,0.22370553016662598,0.12357067316770554,-0.09217676520347595,-1.1767500638961792,7.709329128265381
1689018020177262054,-0.14700649678707123,0.18642127513885498,0.11398329585790634,-0.08379705995321274,-1.0307037830352783,7.594407558441162
1689018020186262054,-0.11930961906909943,0.148071750998497,0.10546118021011353,-0.090979665517807,-0.8894459009170532,7.50462532043457
1689018020196262054,-0.08948221057653427,0.11185276508331299,0.09587380290031433,-0.11611878126859665,-0.7781155109405518,7.469909191131592
1689018020206262054,-0.05752427875995636,0.07669904083013535,0.08948221057653427,-0.152031809091568,-0.7015010714530945,7.486668586730957
1689018020215262054,-0.026631610468029976,0.04580637067556381,0.0884169489145279,-0.21667525172233582,-0.6607996821403503,7.577648162841797
1689018020226262054,-0.003195793367922306,0.01810949482023716,0.09374327212572098,-0.28969839215278625,-0.6703764796257019,7.7428483963012695
1689018020234262054,0.011717909015715122,-0.008522115647792816,0.09480853378772736,-0.35314473509788513,-0.7194576263427734,7.952340602874756
1689018020244262054,0.01810949482023716,-0.037284255027770996,0.09587380290031433,-0.39145198464393616,-0.7697358131408691,8.214506149291992
1689018020253262054,0.017044231295585632,-0.07243797928094864,0.09693906456232071,-0.4058171808719635,-0.833182156085968,8.470685005187988
1689018020263262054,0.011717909015715122,-0.11078750342130661,0.10333064943552017,-0.4429273009300232,-0.8882488012313843,8.667010307312012
1689018020273262054,0.006391586735844612,-0.15020228922367096,0.11717908829450607,-0.5255272388458252,-0.9062053561210632,8.80587387084961
1689018020282262054,0.003195793367922306,-0.18429075181484222,0.1342233121395111,-0.6368576288223267,-0.9014168977737427,8.901641845703125
1689018020292262054,0.003195793367922306,-0.20772656798362732,0.15446333587169647,-0.7541735172271729,-0.8750807046890259,8.99740982055664
1689018020301262054,0.007456851191818714,-0.222640261054039,0.1715075671672821,-0.8403647541999817,-0.8403647541999817,9.11352825164795
1689018020311262054,0.013848437927663326,-0.22903186082839966,0.1896170675754547,-0.9050082564353943,-0.7852981686592102,9.240421295166016
1689018020321262054,0.023435818031430244,-0.22477079927921295,0.21198762953281403,-0.9672574996948242,-0.711077868938446,9.351751327514648
1689018020330262054,0.034088462591171265,-0.21092236042022705,0.2407497614622116,-1.0091559886932373,-0.628477931022644,9.454702377319336
1689018020340262054,0.049002163112163544,-0.1896170675754547,0.2652508318424225,-0.9995791912078857,-0.5410895943641663,9.582792282104492
1689018020349262054,0.06604639440774918,-0.16405072808265686,0.2822950780391693,-0.9564835429191589,-0.45250412821769714,9.746794700622559
1689018020359262054,0.08522115647792816,-0.1395496428012848,0.28549087047576904,-0.8762778043746948,-0.355538934469223,9.9586820602417
1689018020369262054,0.10439591109752655,-0.1161138266324997,0.2780340313911438,-0.7649474143981934,-0.27413609623908997,10.189722061157227
1689018020378262054,0.1203748807311058,-0.09906959533691406,0.260989785194397,-0.6272808313369751,-0.2777273952960968,10.461463928222656
1689018020388262054,0.12676647305488586,-0.08948221057653427,0.23329290747642517,-0.47644612193107605,-0.3603273630142212,10.775104522705078
1689018020397262054,0.12463594228029251,-0.08628641813993454,0.20240023732185364,-0.3447650372982025,-0.48722004890441895,11.070788383483887
1689018020407262054,0.11185276508331299,-0.08735168725252151,0.16831177473068237,-0.24181437492370605,-0.6236895322799683,11.33654499053955
1689018020416262054,0.09374327212572098,-0.09054747968912125,0.13741911947727203,-0.16519992053508759,-0.6991068720817566,11.524489402770996
1689018020426262054,0.07776430249214172,-0.09161274135112762,0.12144014239311218,-0.12928688526153564,-0.6715735793113708,11.60948371887207
1689018020436262054,0.06285060197114944,-0.09161274135112762,0.12144014239311218,-0.028730420395731926,-0.6260837316513062,11.66455078125
1689018020445262054,0.04687163606286049,-0.09587380290031433,0.11185276508331299,0.23582886159420013,-0.6919242739677429,11.792640686035156
1689018020455262054,0.020240023732185364,-0.11291802674531937,0.07989483326673508,0.5195417404174805,-0.9169792532920837,12.02846908569336
1689018020465262054,-0.024501081556081772,-0.13848437368869781,0.027696875855326653,0.6919242739677429,-1.2234370708465576,12.290634155273438
1689018020474262054,-0.08522115647792816,-0.16405072808265686,-0.029827404767274857,0.7362170219421387,-1.4736311435699463,12.437877655029297
1689018020483262054,-0.15233281254768372,-0.1810949593782425,-0.08522115647792816,0.712274968624115,-1.622071623802185,12.430694580078125
1689018020493262054,-0.21944446861743927,-0.18322548270225525,-0.13209278881549835,0.6619967818260193,-1.7286136150360107,12.328941345214844
1689018020503262054,-0.2822950780391693,-0.17044231295585632,-0.17044231295585632,0.5841851830482483,-1.8004395961761475,12.15057373046875
1689018020512262054,-0.3291667103767395,-0.14594122767448425,-0.18216021358966827,0.48123452067375183,-1.7980453968048096,11.91594123840332
1689018020522262054,-0.3568635880947113,-0.11398329585790634,-0.16937704384326935,0.45010989904403687,-1.7369933128356934,11.528080940246582
1689018020532262054,-0.35899412631988525,-0.07350324839353561,-0.1438107043504715,0.5063736438751221,-1.5658079385757446,11.042057991027832
1689018020541262054,-0.33555829524993896,-0.024501081556081772,-0.10013485699892044,0.5925649404525757,-1.2952630519866943,10.675745010375977
1689018020551262054,-0.29401299357414246,0.024501081556081772,-0.04687163606286049,0.7146691679954529,-1.1085153818130493,10.473435401916504
1689018020560262054,-0.24288028478622437,0.07456851005554199,-0.004261057823896408,0.790086567401886,-0.9457096457481384,10.443507194519043
1689018020570262054,-0.1810949593782425,0.12357067316770554,0.013848437927663326,0.9277531504631042,-0.750582218170166,10.560823440551758
1689018020580262054,-0.12144014239311218,0.16511598229408264,0.009587380103766918,1.159990668296814,-0.6823474764823914,10.737994194030762
1689018020589262054,-0.07350324839353561,0.19707392156124115,-0.023435818031430244,1.3910311460494995,-0.7541735172271729,10.886434555053711
1689018020599262054,-0.041545312851667404,0.21624867618083954,-0.08948221057653427,1.6543933153152466,-0.9528922438621521,10.985794067382812
1689018020608262054,-0.02876213937997818,0.21944446861743927,-0.18642127513885498,1.8997989892959595,-1.304839849472046,11.045649528503418
1689018020618262054,-0.030892668291926384,0.20133498311042786,-0.3057308793067932,2.0195090770721436,-1.668758511543274,11.060014724731445
1689018020627262054,-0.04261057823896408,0.16937704384326935,-0.4314320981502533,2.0219032764434814,-1.868674397468567,10.949881553649902
1689018020637262054,-0.05752427875995636,0.13315805792808533,-0.5507417321205139,1.9692308902740479,-1.911769986152649,10.703278541564941
1689018020646262054,-0.07243797928094864,0.10120011866092682,-0.6519418358802795,1.8734627962112427,-1.8579005002975464,10.408791542053223
1689018020656262054,-0.08948221057653427,0.07669904083013535,-0.7222492694854736,1.703474521636963,-1.7753005027770996,10.055646896362305
1689018020666262054,-0.10759171098470688,0.06391586363315582,-0.7584682703018188,1.4209586381912231,-1.721431016921997,9.654618263244629
1689018020675262054,-0.12676647305488586,0.06604639440774918,-0.7552725076675415,1.114500880241394,-1.6867151260375977,9.247604370117188
1689018020685262054,-0.148071750998497,0.07350324839353561,-0.7179882526397705,0.8978255987167358,-1.6555904150009155,8.828619003295898
1689018020694262054,-0.16618125140666962,0.07776430249214172,-0.6615292429924011,0.7793126106262207,-1.5753847360610962,8.439560890197754
1689018020704262054,-0.17470337450504303,0.0788295716047287,-0.5976133346557617,0.712274968624115,-1.434126853942871,8.086416244506836
1689018020714262054,-0.16831177473068237,0.07563377171754837,-0.537958562374115,0.6631938815116882,-1.2413935661315918,7.754819393157959
1689018020723262054,-0.148071750998497,0.06924218684434891,-0.482564777135849,0.629675030708313,-1.0199298858642578,7.486668586730957
1689018020733262054,-0.11291802674531937,0.06178533658385277,-0.4356931447982788,0.6033388376235962,-0.8271966576576233,7.284358501434326
1689018020742262054,-0.06711165606975555,0.0511326938867569,-0.40053942799568176,0.5482721924781799,-0.6859387755393982,7.125144004821777
1689018020752262054,-0.017044231295585632,0.04367584362626076,-0.37390780448913574,0.4429273009300232,-0.5638344883918762,7.010222434997559
1689018020762262054,0.034088462591171265,0.03941478580236435,-0.36005938053131104,0.3292027413845062,-0.4273650050163269,6.949170112609863
1689018020771262054,0.08415588736534119,0.03515372797846794,-0.3568635880947113,0.2885012924671173,-0.29209259152412415,6.921637058258057
1689018020781262054,0.13528858125209808,0.02556634694337845,-0.362189918756485,0.31364041566848755,-0.17477671802043915,6.957550048828125
1689018020790262054,0.185356006026268,0.01065264455974102,-0.37284255027770996,0.31603461503982544,-0.0802057534456253,7.066486358642578
1689018020800262054,0.23329290747642517,-0.00532632227987051,-0.38775625824928284,0.272938996553421,-0.03711012750864029,7.176619529724121
1689018020810262054,0.27696874737739563,-0.01810949482023716,-0.4026699662208557,0.20350714027881622,-0.015562310814857483,7.29034423828125
1689018020819262054,0.3206445872783661,-0.023435818031430244,-0.41545313596725464,0.1388636976480484,-0.0071826050989329815,7.442375659942627
1689018020829262054,0.3568635880947113,-0.020240023732185364,-0.42397525906562805,0.08858545869588852,-0.013168109580874443,7.620743751525879
1689018020838262054,0.38669100403785706,-0.01065264455974102,-0.42504051327705383,0.02753331884741783,-0.017956512048840523,7.825448036193848
1689018020848262054,0.407996267080307,0.001065264455974102,-0.4207794666290283,-0.05626373738050461,-0.04668693244457245,8.092401504516602
1689018020857262054,0.4175836443901062,0.011717909015715122,-0.407996267080307,-0.15562310814857483,-0.09457096457481384,8.407238960266113
1689018020867262054,0.4133225977420807,0.020240023732185364,-0.3834952116012573,-0.23702596127986908,-0.16998831927776337,8.718484878540039
1689018020877262054,0.39734363555908203,0.027696875855326653,-0.35473304986953735,-0.28131869435310364,-0.272938996553421,9.039308547973633
1689018020886262054,0.36964675784111023,0.03195793181657791,-0.324905663728714,-0.3076549172401428,-0.365115761756897,9.386467933654785
1689018020895262054,0.3344930410385132,0.03621898964047432,-0.2918824553489685,-0.3519476354122162,-0.424970805644989,9.682151794433594
1689018020905262054,0.29507824778556824,0.044741105288267136,-0.25246766209602356,-0.40222588181495667,-0.44173020124435425,9.87967300415039
1689018020915262054,0.2556634545326233,0.058589544147253036,-0.2045307755470276,-0.39624038338661194,-0.4213795065879822,10.06163215637207
1689018020924262054,0.2183792144060135,0.07030745595693588,-0.15446333587169647,-0.3687070608139038,-0.37469255924224854,10.311826705932617
1689018020934262054,0.185356006026268,0.0788295716047287,-0.10333064943552017,-0.3663128614425659,-0.33039984107017517,10.596736907958984
1689018020943262054,0.15552860498428345,0.08202536404132843,-0.05965480953454971,-0.3519476354122162,-0.3315969407558441,10.911574363708496
1689018020953262054,0.12676647305488586,0.07776430249214172,-0.034088462591171265,-0.32680851221084595,-0.39384618401527405,11.299434661865234
1689018020962262054,0.09480853378772736,0.06391586363315582,-0.02876213937997818,-0.2861070930957794,-0.507570743560791,11.713631629943848
